2024/8/1 	 11:51:11 
 This file comes from Vt only measurement 	 1.000000E-1 
 Voltage Sensitivity 	 0.000000E+0 
 Sampling rate 	 200 
 Number of samples per channel 	 -1 
 No filter from Labview 	 	 	 
 	 
 ***End_of_Header*** 
 	 Time 	  Voltage 	 Filtered Voltage 	 
	0.000000	0.156131
	0.005000	0.123244
	0.010000	0.162708
	0.015000	0.198884
	0.020000	0.159420
	0.025000	0.110089
	0.030000	0.159420
	0.035000	0.198884
	0.040000	0.159420
	0.045000	0.116666
	0.050000	0.159420
	0.055000	0.205462
	0.060000	0.162708
	0.065000	0.116666
	0.070000	0.159420
	0.075000	0.205462
	0.080000	0.162708
	0.085000	0.119955
	0.090000	0.162708
	0.095000	0.205462
	0.100000	0.162708
	0.105000	0.119955
	0.110000	0.162708
	0.115000	0.208751
	0.120000	0.162708
	0.125000	0.126533
	0.130000	0.159420
	0.135000	0.202173
	0.140000	0.169286
	0.145000	0.123244
	0.150000	0.162708
	0.155000	0.208751
	0.160000	0.162708
	0.165000	0.126533
	0.170000	0.162708
	0.175000	0.208751
	0.180000	0.169286
	0.185000	0.123244
	0.190000	0.162708
	0.195000	0.208751
	0.200000	0.169286
	0.205000	0.123244
	0.210000	0.159420
	0.215000	0.208751
	0.220000	0.169286
	0.225000	0.123244
	0.230000	0.162708
	0.235000	0.208751
	0.240000	0.165997
	0.245000	0.123244
	0.250000	0.165997
	0.255000	0.208751
	0.260000	0.169286
	0.265000	0.123244
	0.270000	0.162708
	0.275000	0.205462
	0.280000	0.169286
	0.285000	0.126533
	0.290000	0.165997
	0.295000	0.215328
	0.300000	0.165997
	0.305000	0.126533
	0.310000	0.162708
	0.315000	0.208751
	0.320000	0.165997
	0.325000	0.123244
	0.330000	0.165997
	0.335000	0.212039
	0.340000	0.165997
	0.345000	0.126533
	0.350000	0.165997
	0.355000	0.215328
	0.360000	0.172575
	0.365000	0.129821
	0.370000	0.165997
	0.375000	0.212039
	0.380000	0.169286
	0.385000	0.123244
	0.390000	0.169286
	0.395000	0.215328
	0.400000	0.169286
	0.405000	0.123244
	0.410000	0.165997
	0.415000	0.212039
	0.420000	0.175863
	0.425000	0.126533
	0.430000	0.169286
	0.435000	0.212039
	0.440000	0.175863
	0.445000	0.129821
	0.450000	0.165997
	0.455000	0.212039
	0.460000	0.175863
	0.465000	0.126533
	0.470000	0.169286
	0.475000	0.208751
	0.480000	0.175863
	0.485000	0.129821
	0.490000	0.162708
	0.495000	0.208751
	0.500000	0.175863
	0.505000	0.126533
	0.510000	0.165997
	0.515000	0.212039
	0.520000	0.175863
	0.525000	0.129821
	0.530000	0.162708
	0.535000	0.215328
	0.540000	0.172575
	0.545000	0.126533
	0.550000	0.169286
	0.555000	0.215328
	0.560000	0.175863
	0.565000	0.126533
	0.570000	0.169286
	0.575000	0.218617
	0.580000	0.175863
	0.585000	0.126533
	0.590000	0.169286
	0.595000	0.215328
	0.600000	0.175863
	0.605000	0.129821
	0.610000	0.165997
	0.615000	0.215328
	0.620000	0.175863
	0.625000	0.133110
	0.630000	0.169286
	0.635000	0.218617
	0.640000	0.182441
	0.645000	0.129821
	0.650000	0.169286
	0.655000	0.218617
	0.660000	0.179152
	0.665000	0.129821
	0.670000	0.169286
	0.675000	0.215328
	0.680000	0.179152
	0.685000	0.129821
	0.690000	0.169286
	0.695000	0.218617
	0.700000	0.185730
	0.705000	0.129821
	0.710000	0.172575
	0.715000	0.218617
	0.720000	0.182441
	0.725000	0.133110
	0.730000	0.172575
	0.735000	0.215328
	0.740000	0.179152
	0.745000	0.126533
	0.750000	0.169286
	0.755000	0.218617
	0.760000	0.182441
	0.765000	0.129821
	0.770000	0.169286
	0.775000	0.215328
	0.780000	0.182441
	0.785000	0.136399
	0.790000	0.169286
	0.795000	0.218617
	0.800000	0.182441
	0.805000	0.136399
	0.810000	0.169286
	0.815000	0.218617
	0.820000	0.182441
	0.825000	0.133110
	0.830000	0.169286
	0.835000	0.218617
	0.840000	0.182441
	0.845000	0.136399
	0.850000	0.169286
	0.855000	0.218617
	0.860000	0.185730
	0.865000	0.133110
	0.870000	0.172575
	0.875000	0.218617
	0.880000	0.185730
	0.885000	0.133110
	0.890000	0.172575
	0.895000	0.218617
	0.900000	0.185730
	0.905000	0.136399
	0.910000	0.172575
	0.915000	0.221905
	0.920000	0.185730
	0.925000	0.136399
	0.930000	0.172575
	0.935000	0.221905
	0.940000	0.185730
	0.945000	0.136399
	0.950000	0.172575
	0.955000	0.218617
	0.960000	0.189018
	0.965000	0.136399
	0.970000	0.172575
	0.975000	0.225194
	0.980000	0.185730
	0.985000	0.136399
	0.990000	0.175863
	0.995000	0.221905
	1.000000	0.185730
	1.005000	0.142976
	1.010000	0.175863
	1.015000	0.225194
	1.020000	0.189018
	1.025000	0.142976
	1.030000	0.175863
	1.035000	0.218617
	1.040000	0.182441
	1.045000	0.139687
	1.050000	0.179152
	1.055000	0.225194
	1.060000	0.185730
	1.065000	0.142976
	1.070000	0.169286
	1.075000	0.221905
	1.080000	0.192307
	1.085000	0.139687
	1.090000	0.169286
	1.095000	0.225194
	1.100000	0.185730
	1.105000	0.139687
	1.110000	0.175863
	1.115000	0.225194
	1.120000	0.189018
	1.125000	0.139687
	1.130000	0.172575
	1.135000	0.228483
	1.140000	0.189018
	1.145000	0.142976
	1.150000	0.175863
	1.155000	0.228483
	1.160000	0.195596
	1.165000	0.142976
	1.170000	0.175863
	1.175000	0.225194
	1.180000	0.195596
	1.185000	0.142976
	1.190000	0.175863
	1.195000	0.225194
	1.200000	0.192307
	1.205000	0.146265
	1.210000	0.172575
	1.215000	0.228483
	1.220000	0.195596
	1.225000	0.139687
	1.230000	0.175863
	1.235000	0.228483
	1.240000	0.192307
	1.245000	0.142976
	1.250000	0.172575
	1.255000	0.228483
	1.260000	0.192307
	1.265000	0.142976
	1.270000	0.172575
	1.275000	0.225194
	1.280000	0.192307
	1.285000	0.139687
	1.290000	0.169286
	1.295000	0.225194
	1.300000	0.198884
	1.305000	0.139687
	1.310000	0.175863
	1.315000	0.221905
	1.320000	0.195596
	1.325000	0.142976
	1.330000	0.175863
	1.335000	0.221905
	1.340000	0.192307
	1.345000	0.139687
	1.350000	0.172575
	1.355000	0.228483
	1.360000	0.195596
	1.365000	0.142976
	1.370000	0.169286
	1.375000	0.225194
	1.380000	0.195596
	1.385000	0.146265
	1.390000	0.172575
	1.395000	0.225194
	1.400000	0.195596
	1.405000	0.146265
	1.410000	0.175863
	1.415000	0.228483
	1.420000	0.192307
	1.425000	0.149554
	1.430000	0.172575
	1.435000	0.225194
	1.440000	0.195596
	1.445000	0.149554
	1.450000	0.175863
	1.455000	0.225194
	1.460000	0.198884
	1.465000	0.142976
	1.470000	0.172575
	1.475000	0.225194
	1.480000	0.195596
	1.485000	0.142976
	1.490000	0.179152
	1.495000	0.225194
	1.500000	0.195596
	1.505000	0.142976
	1.510000	0.175863
	1.515000	0.225194
	1.520000	0.198884
	1.525000	0.142976
	1.530000	0.169286
	1.535000	0.225194
	1.540000	0.198884
	1.545000	0.146265
	1.550000	0.175863
	1.555000	0.228483
	1.560000	0.198884
	1.565000	0.142976
	1.570000	0.172575
	1.575000	0.231772
	1.580000	0.202173
	1.585000	0.146265
	1.590000	0.175863
	1.595000	0.225194
	1.600000	0.195596
	1.605000	0.146265
	1.610000	0.182441
	1.615000	0.228483
	1.620000	0.198884
	1.625000	0.142976
	1.630000	0.175863
	1.635000	0.228483
	1.640000	0.198884
	1.645000	0.146265
	1.650000	0.175863
	1.655000	0.231772
	1.660000	0.198884
	1.665000	0.152842
	1.670000	0.182441
	1.675000	0.231772
	1.680000	0.198884
	1.685000	0.146265
	1.690000	0.179152
	1.695000	0.228483
	1.700000	0.202173
	1.705000	0.146265
	1.710000	0.175863
	1.715000	0.231772
	1.720000	0.205462
	1.725000	0.152842
	1.730000	0.179152
	1.735000	0.235060
	1.740000	0.202173
	1.745000	0.149554
	1.750000	0.182441
	1.755000	0.231772
	1.760000	0.202173
	1.765000	0.149554
	1.770000	0.175863
	1.775000	0.228483
	1.780000	0.205462
	1.785000	0.149554
	1.790000	0.175863
	1.795000	0.235060
	1.800000	0.205462
	1.805000	0.152842
	1.810000	0.175863
	1.815000	0.235060
	1.820000	0.205462
	1.825000	0.149554
	1.830000	0.182441
	1.835000	0.235060
	1.840000	0.205462
	1.845000	0.152842
	1.850000	0.175863
	1.855000	0.235060
	1.860000	0.205462
	1.865000	0.156131
	1.870000	0.179152
	1.875000	0.235060
	1.880000	0.208751
	1.885000	0.146265
	1.890000	0.179152
	1.895000	0.228483
	1.900000	0.205462
	1.905000	0.149554
	1.910000	0.182441
	1.915000	0.231772
	1.920000	0.208751
	1.925000	0.156131
	1.930000	0.182441
	1.935000	0.235060
	1.940000	0.208751
	1.945000	0.156131
	1.950000	0.182441
	1.955000	0.235060
	1.960000	0.212039
	1.965000	0.156131
	1.970000	0.179152
	1.975000	0.238349
	1.980000	0.208751
	1.985000	0.156131
	1.990000	0.182441
	1.995000	0.238349
	2.000000	0.212039
	2.005000	0.156131
	2.010000	0.182441
	2.015000	0.238349
	2.020000	0.205462
	2.025000	0.156131
	2.030000	0.175863
	2.035000	0.238349
	2.040000	0.205462
	2.045000	0.152842
	2.050000	0.182441
	2.055000	0.235060
	2.060000	0.205462
	2.065000	0.149554
	2.070000	0.182441
	2.075000	0.235060
	2.080000	0.205462
	2.085000	0.156131
	2.090000	0.179152
	2.095000	0.235060
	2.100000	0.208751
	2.105000	0.152842
	2.110000	0.182441
	2.115000	0.231772
	2.120000	0.208751
	2.125000	0.159420
	2.130000	0.179152
	2.135000	0.231772
	2.140000	0.212039
	2.145000	0.152842
	2.150000	0.175863
	2.155000	0.228483
	2.160000	0.215328
	2.165000	0.156131
	2.170000	0.175863
	2.175000	0.231772
	2.180000	0.212039
	2.185000	0.156131
	2.190000	0.182441
	2.195000	0.235060
	2.200000	0.205462
	2.205000	0.152842
	2.210000	0.179152
	2.215000	0.231772
	2.220000	0.212039
	2.225000	0.159420
	2.230000	0.179152
	2.235000	0.235060
	2.240000	0.212039
	2.245000	0.152842
	2.250000	0.179152
	2.255000	0.238349
	2.260000	0.212039
	2.265000	0.156131
	2.270000	0.182441
	2.275000	0.235060
	2.280000	0.208751
	2.285000	0.156131
	2.290000	0.175863
	2.295000	0.238349
	2.300000	0.212039
	2.305000	0.156131
	2.310000	0.179152
	2.315000	0.235060
	2.320000	0.212039
	2.325000	0.156131
	2.330000	0.182441
	2.335000	0.235060
	2.340000	0.215328
	2.345000	0.152842
	2.350000	0.175863
	2.355000	0.235060
	2.360000	0.212039
	2.365000	0.156131
	2.370000	0.182441
	2.375000	0.235060
	2.380000	0.212039
	2.385000	0.152842
	2.390000	0.182441
	2.395000	0.235060
	2.400000	0.212039
	2.405000	0.156131
	2.410000	0.182441
	2.415000	0.235060
	2.420000	0.215328
	2.425000	0.159420
	2.430000	0.182441
	2.435000	0.238349
	2.440000	0.218617
	2.445000	0.156131
	2.450000	0.182441
	2.455000	0.235060
	2.460000	0.208751
	2.465000	0.162708
	2.470000	0.179152
	2.475000	0.235060
	2.480000	0.215328
	2.485000	0.162708
	2.490000	0.179152
	2.495000	0.238349
	2.500000	0.218617
	2.505000	0.159420
	2.510000	0.179152
	2.515000	0.238349
	2.520000	0.215328
	2.525000	0.165997
	2.530000	0.182441
	2.535000	0.238349
	2.540000	0.218617
	2.545000	0.165997
	2.550000	0.182441
	2.555000	0.235060
	2.560000	0.215328
	2.565000	0.159420
	2.570000	0.182441
	2.575000	0.235060
	2.580000	0.218617
	2.585000	0.162708
	2.590000	0.182441
	2.595000	0.235060
	2.600000	0.221905
	2.605000	0.162708
	2.610000	0.182441
	2.615000	0.238349
	2.620000	0.221905
	2.625000	0.159420
	2.630000	0.182441
	2.635000	0.241638
	2.640000	0.218617
	2.645000	0.159420
	2.650000	0.179152
	2.655000	0.235060
	2.660000	0.215328
	2.665000	0.162708
	2.670000	0.179152
	2.675000	0.235060
	2.680000	0.218617
	2.685000	0.162708
	2.690000	0.182441
	2.695000	0.238349
	2.700000	0.218617
	2.705000	0.159420
	2.710000	0.182441
	2.715000	0.235060
	2.720000	0.215328
	2.725000	0.162708
	2.730000	0.182441
	2.735000	0.241638
	2.740000	0.221905
	2.745000	0.165997
	2.750000	0.185730
	2.755000	0.244927
	2.760000	0.228483
	2.765000	0.179152
	2.770000	0.205462
	2.775000	0.264659
	2.780000	0.251504
	2.785000	0.202173
	2.790000	0.225194
	2.795000	0.284391
	2.800000	0.274525
	2.805000	0.218617
	2.810000	0.241638
	2.815000	0.304124
	2.820000	0.287680
	2.825000	0.241638
	2.830000	0.264659
	2.835000	0.320567
	2.840000	0.317278
	2.845000	0.267948
	2.850000	0.287680
	2.855000	0.350166
	2.860000	0.340299
	2.865000	0.294257
	2.870000	0.313990
	2.875000	0.373187
	2.880000	0.363321
	2.885000	0.320567
	2.890000	0.337011
	2.895000	0.392919
	2.900000	0.386342
	2.905000	0.327145
	2.910000	0.346877
	2.915000	0.406074
	2.920000	0.389630
	2.925000	0.330433
	2.930000	0.346877
	2.935000	0.409363
	2.940000	0.389630
	2.945000	0.333722
	2.950000	0.350166
	2.955000	0.406074
	2.960000	0.389630
	2.965000	0.333722
	2.970000	0.353454
	2.975000	0.402785
	2.980000	0.392919
	2.985000	0.337011
	2.990000	0.353454
	2.995000	0.402785
	3.000000	0.389630
	3.005000	0.337011
	3.010000	0.353454
	3.015000	0.402785
	3.020000	0.383053
	3.025000	0.333722
	3.030000	0.346877
	3.035000	0.392919
	3.040000	0.376475
	3.045000	0.323856
	3.050000	0.333722
	3.055000	0.386342
	3.060000	0.366609
	3.065000	0.313990
	3.070000	0.327145
	3.075000	0.379764
	3.080000	0.363321
	3.085000	0.313990
	3.090000	0.323856
	3.095000	0.373187
	3.100000	0.356743
	3.105000	0.300835
	3.110000	0.313990
	3.115000	0.363321
	3.120000	0.350166
	3.125000	0.294257
	3.130000	0.310701
	3.135000	0.360032
	3.140000	0.343588
	3.145000	0.290969
	3.150000	0.304124
	3.155000	0.350166
	3.160000	0.337011
	3.165000	0.284391
	3.170000	0.290969
	3.175000	0.343588
	3.180000	0.333722
	3.185000	0.277814
	3.190000	0.290969
	3.195000	0.337011
	3.200000	0.320567
	3.205000	0.267948
	3.210000	0.274525
	3.215000	0.330433
	3.220000	0.307412
	3.225000	0.261370
	3.230000	0.267948
	3.235000	0.317278
	3.240000	0.307412
	3.245000	0.248215
	3.250000	0.254793
	3.255000	0.310701
	3.260000	0.294257
	3.265000	0.241638
	3.270000	0.248215
	3.275000	0.297546
	3.280000	0.287680
	3.285000	0.228483
	3.290000	0.238349
	3.295000	0.287680
	3.300000	0.274525
	3.305000	0.215328
	3.310000	0.221905
	3.315000	0.277814
	3.320000	0.261370
	3.325000	0.205462
	3.330000	0.215328
	3.335000	0.261370
	3.340000	0.254793
	3.345000	0.195596
	3.350000	0.208751
	3.355000	0.254793
	3.360000	0.241638
	3.365000	0.182441
	3.370000	0.195596
	3.375000	0.248215
	3.380000	0.228483
	3.385000	0.169286
	3.390000	0.179152
	3.395000	0.231772
	3.400000	0.221905
	3.405000	0.162708
	3.410000	0.175863
	3.415000	0.225194
	3.420000	0.208751
	3.425000	0.149554
	3.430000	0.162708
	3.435000	0.208751
	3.440000	0.198884
	3.445000	0.139687
	3.450000	0.152842
	3.455000	0.208751
	3.460000	0.189018
	3.465000	0.133110
	3.470000	0.142976
	3.475000	0.198884
	3.480000	0.189018
	3.485000	0.129821
	3.490000	0.136399
	3.495000	0.195596
	3.500000	0.182441
	3.505000	0.119955
	3.510000	0.136399
	3.515000	0.192307
	3.520000	0.179152
	3.525000	0.126533
	3.530000	0.133110
	3.535000	0.189018
	3.540000	0.182441
	3.545000	0.123244
	3.550000	0.129821
	3.555000	0.189018
	3.560000	0.175863
	3.565000	0.123244
	3.570000	0.129821
	3.575000	0.182441
	3.580000	0.172575
	3.585000	0.116666
	3.590000	0.129821
	3.595000	0.182441
	3.600000	0.169286
	3.605000	0.110089
	3.610000	0.119955
	3.615000	0.175863
	3.620000	0.169286
	3.625000	0.106800
	3.630000	0.116666
	3.635000	0.179152
	3.640000	0.169286
	3.645000	0.110089
	3.650000	0.116666
	3.655000	0.179152
	3.660000	0.169286
	3.665000	0.113378
	3.670000	0.119955
	3.675000	0.182441
	3.680000	0.169286
	3.685000	0.110089
	3.690000	0.126533
	3.695000	0.182441
	3.700000	0.172575
	3.705000	0.110089
	3.710000	0.119955
	3.715000	0.179152
	3.720000	0.169286
	3.725000	0.116666
	3.730000	0.123244
	3.735000	0.179152
	3.740000	0.172575
	3.745000	0.116666
	3.750000	0.126533
	3.755000	0.179152
	3.760000	0.175863
	3.765000	0.113378
	3.770000	0.123244
	3.775000	0.182441
	3.780000	0.175863
	3.785000	0.113378
	3.790000	0.129821
	3.795000	0.185730
	3.800000	0.175863
	3.805000	0.116666
	3.810000	0.129821
	3.815000	0.185730
	3.820000	0.175863
	3.825000	0.123244
	3.830000	0.126533
	3.835000	0.189018
	3.840000	0.182441
	3.845000	0.123244
	3.850000	0.126533
	3.855000	0.192307
	3.860000	0.182441
	3.865000	0.126533
	3.870000	0.129821
	3.875000	0.189018
	3.880000	0.182441
	3.885000	0.126533
	3.890000	0.133110
	3.895000	0.192307
	3.900000	0.185730
	3.905000	0.126533
	3.910000	0.136399
	3.915000	0.195596
	3.920000	0.189018
	3.925000	0.133110
	3.930000	0.129821
	3.935000	0.198884
	3.940000	0.192307
	3.945000	0.129821
	3.950000	0.139687
	3.955000	0.198884
	3.960000	0.192307
	3.965000	0.136399
	3.970000	0.139687
	3.975000	0.198884
	3.980000	0.192307
	3.985000	0.133110
	3.990000	0.142976
	3.995000	0.202173
	4.000000	0.195596
	4.005000	0.136399
	4.010000	0.139687
	4.015000	0.202173
	4.020000	0.195596
	4.025000	0.136399
	4.030000	0.142976
	4.035000	0.198884
	4.040000	0.192307
	4.045000	0.136399
	4.050000	0.146265
	4.055000	0.198884
	4.060000	0.202173
	4.065000	0.136399
	4.070000	0.139687
	4.075000	0.205462
	4.080000	0.198884
	4.085000	0.142976
	4.090000	0.142976
	4.095000	0.202173
	4.100000	0.202173
	4.105000	0.142976
	4.110000	0.146265
	4.115000	0.205462
	4.120000	0.205462
	4.125000	0.146265
	4.130000	0.146265
	4.135000	0.208751
	4.140000	0.202173
	4.145000	0.146265
	4.150000	0.152842
	4.155000	0.202173
	4.160000	0.208751
	4.165000	0.146265
	4.170000	0.152842
	4.175000	0.212039
	4.180000	0.208751
	4.185000	0.146265
	4.190000	0.152842
	4.195000	0.205462
	4.200000	0.208751
	4.205000	0.146265
	4.210000	0.152842
	4.215000	0.212039
	4.220000	0.212039
	4.225000	0.149554
	4.230000	0.152842
	4.235000	0.215328
	4.240000	0.208751
	4.245000	0.146265
	4.250000	0.156131
	4.255000	0.215328
	4.260000	0.208751
	4.265000	0.152842
	4.270000	0.152842
	4.275000	0.215328
	4.280000	0.212039
	4.285000	0.152842
	4.290000	0.156131
	4.295000	0.212039
	4.300000	0.218617
	4.305000	0.156131
	4.310000	0.156131
	4.315000	0.218617
	4.320000	0.215328
	4.325000	0.159420
	4.330000	0.159420
	4.335000	0.218617
	4.340000	0.215328
	4.345000	0.156131
	4.350000	0.162708
	4.355000	0.221905
	4.360000	0.218617
	4.365000	0.159420
	4.370000	0.159420
	4.375000	0.221905
	4.380000	0.221905
	4.385000	0.162708
	4.390000	0.169286
	4.395000	0.218617
	4.400000	0.221905
	4.405000	0.159420
	4.410000	0.169286
	4.415000	0.225194
	4.420000	0.228483
	4.425000	0.162708
	4.430000	0.165997
	4.435000	0.221905
	4.440000	0.221905
	4.445000	0.165997
	4.450000	0.169286
	4.455000	0.221905
	4.460000	0.221905
	4.465000	0.165997
	4.470000	0.165997
	4.475000	0.221905
	4.480000	0.221905
	4.485000	0.169286
	4.490000	0.165997
	4.495000	0.225194
	4.500000	0.225194
	4.505000	0.165997
	4.510000	0.169286
	4.515000	0.225194
	4.520000	0.228483
	4.525000	0.165997
	4.530000	0.165997
	4.535000	0.228483
	4.540000	0.225194
	4.545000	0.169286
	4.550000	0.169286
	4.555000	0.225194
	4.560000	0.228483
	4.565000	0.165997
	4.570000	0.172575
	4.575000	0.225194
	4.580000	0.231772
	4.585000	0.169286
	4.590000	0.169286
	4.595000	0.228483
	4.600000	0.228483
	4.605000	0.169286
	4.610000	0.172575
	4.615000	0.231772
	4.620000	0.228483
	4.625000	0.165997
	4.630000	0.169286
	4.635000	0.228483
	4.640000	0.228483
	4.645000	0.169286
	4.650000	0.172575
	4.655000	0.228483
	4.660000	0.225194
	4.665000	0.169286
	4.670000	0.172575
	4.675000	0.228483
	4.680000	0.235060
	4.685000	0.172575
	4.690000	0.169286
	4.695000	0.228483
	4.700000	0.231772
	4.705000	0.172575
	4.710000	0.169286
	4.715000	0.228483
	4.720000	0.231772
	4.725000	0.169286
	4.730000	0.172575
	4.735000	0.228483
	4.740000	0.235060
	4.745000	0.172575
	4.750000	0.172575
	4.755000	0.228483
	4.760000	0.235060
	4.765000	0.169286
	4.770000	0.172575
	4.775000	0.231772
	4.780000	0.231772
	4.785000	0.179152
	4.790000	0.175863
	4.795000	0.228483
	4.800000	0.235060
	4.805000	0.175863
	4.810000	0.175863
	4.815000	0.231772
	4.820000	0.231772
	4.825000	0.172575
	4.830000	0.172575
	4.835000	0.231772
	4.840000	0.231772
	4.845000	0.175863
	4.850000	0.172575
	4.855000	0.228483
	4.860000	0.235060
	4.865000	0.182441
	4.870000	0.172575
	4.875000	0.228483
	4.880000	0.235060
	4.885000	0.172575
	4.890000	0.175863
	4.895000	0.231772
	4.900000	0.231772
	4.905000	0.179152
	4.910000	0.169286
	4.915000	0.231772
	4.920000	0.235060
	4.925000	0.175863
	4.930000	0.172575
	4.935000	0.228483
	4.940000	0.235060
	4.945000	0.172575
	4.950000	0.175863
	4.955000	0.235060
	4.960000	0.235060
	4.965000	0.175863
	4.970000	0.175863
	4.975000	0.228483
	4.980000	0.238349
	4.985000	0.175863
	4.990000	0.175863
	4.995000	0.238349
	5.000000	0.238349
	5.005000	0.175863
	5.010000	0.175863
	5.015000	0.231772
	5.020000	0.235060
	5.025000	0.179152
	5.030000	0.175863
	5.035000	0.235060
	5.040000	0.238349
	5.045000	0.182441
	5.050000	0.175863
	5.055000	0.235060
	5.060000	0.238349
	5.065000	0.179152
	5.070000	0.179152
	5.075000	0.238349
	5.080000	0.238349
	5.085000	0.182441
	5.090000	0.175863
	5.095000	0.235060
	5.100000	0.241638
	5.105000	0.189018
	5.110000	0.175863
	5.115000	0.235060
	5.120000	0.238349
	5.125000	0.182441
	5.130000	0.175863
	5.135000	0.235060
	5.140000	0.241638
	5.145000	0.185730
	5.150000	0.175863
	5.155000	0.238349
	5.160000	0.244927
	5.165000	0.182441
	5.170000	0.182441
	5.175000	0.241638
	5.180000	0.244927
	5.185000	0.185730
	5.190000	0.182441
	5.195000	0.241638
	5.200000	0.248215
	5.205000	0.185730
	5.210000	0.182441
	5.215000	0.241638
	5.220000	0.248215
	5.225000	0.189018
	5.230000	0.182441
	5.235000	0.238349
	5.240000	0.244927
	5.245000	0.185730
	5.250000	0.179152
	5.255000	0.241638
	5.260000	0.241638
	5.265000	0.189018
	5.270000	0.182441
	5.275000	0.238349
	5.280000	0.244927
	5.285000	0.195596
	5.290000	0.182441
	5.295000	0.241638
	5.300000	0.241638
	5.305000	0.189018
	5.310000	0.179152
	5.315000	0.235060
	5.320000	0.251504
	5.325000	0.189018
	5.330000	0.182441
	5.335000	0.238349
	5.340000	0.248215
	5.345000	0.189018
	5.350000	0.179152
	5.355000	0.235060
	5.360000	0.248215
	5.365000	0.185730
	5.370000	0.179152
	5.375000	0.241638
	5.380000	0.244927
	5.385000	0.189018
	5.390000	0.179152
	5.395000	0.238349
	5.400000	0.241638
	5.405000	0.185730
	5.410000	0.172575
	5.415000	0.235060
	5.420000	0.241638
	5.425000	0.179152
	5.430000	0.169286
	5.435000	0.228483
	5.440000	0.235060
	5.445000	0.175863
	5.450000	0.162708
	5.455000	0.221905
	5.460000	0.228483
	5.465000	0.172575
	5.470000	0.165997
	5.475000	0.215328
	5.480000	0.235060
	5.485000	0.165997
	5.490000	0.162708
	5.495000	0.218617
	5.500000	0.231772
	5.505000	0.169286
	5.510000	0.165997
	5.515000	0.215328
	5.520000	0.225194
	5.525000	0.169286
	5.530000	0.162708
	5.535000	0.218617
	5.540000	0.225194
	5.545000	0.172575
	5.550000	0.162708
	5.555000	0.215328
	5.560000	0.228483
	5.565000	0.169286
	5.570000	0.159420
	5.575000	0.221905
	5.580000	0.231772
	5.585000	0.165997
	5.590000	0.165997
	5.595000	0.215328
	5.600000	0.228483
	5.605000	0.172575
	5.610000	0.162708
	5.615000	0.215328
	5.620000	0.231772
	5.625000	0.172575
	5.630000	0.162708
	5.635000	0.218617
	5.640000	0.231772
	5.645000	0.175863
	5.650000	0.159420
	5.655000	0.221905
	5.660000	0.228483
	5.665000	0.175863
	5.670000	0.165997
	5.675000	0.225194
	5.680000	0.231772
	5.685000	0.172575
	5.690000	0.159420
	5.695000	0.221905
	5.700000	0.231772
	5.705000	0.175863
	5.710000	0.169286
	5.715000	0.225194
	5.720000	0.235060
	5.725000	0.175863
	5.730000	0.169286
	5.735000	0.225194
	5.740000	0.238349
	5.745000	0.179152
	5.750000	0.169286
	5.755000	0.221905
	5.760000	0.235060
	5.765000	0.179152
	5.770000	0.175863
	5.775000	0.225194
	5.780000	0.241638
	5.785000	0.185730
	5.790000	0.179152
	5.795000	0.241638
	5.800000	0.258081
	5.805000	0.208751
	5.810000	0.195596
	5.815000	0.258081
	5.820000	0.277814
	5.825000	0.228483
	5.830000	0.215328
	5.835000	0.277814
	5.840000	0.297546
	5.845000	0.248215
	5.850000	0.238349
	5.855000	0.300835
	5.860000	0.323856
	5.865000	0.274525
	5.870000	0.264659
	5.875000	0.327145
	5.880000	0.346877
	5.885000	0.294257
	5.890000	0.284391
	5.895000	0.343588
	5.900000	0.360032
	5.905000	0.307412
	5.910000	0.300835
	5.915000	0.356743
	5.920000	0.369898
	5.925000	0.323856
	5.930000	0.313990
	5.935000	0.360032
	5.940000	0.376475
	5.945000	0.327145
	5.950000	0.313990
	5.955000	0.373187
	5.960000	0.383053
	5.965000	0.330433
	5.970000	0.317278
	5.975000	0.363321
	5.980000	0.383053
	5.985000	0.327145
	5.990000	0.313990
	5.995000	0.366609
	6.000000	0.376475
	6.005000	0.327145
	6.010000	0.307412
	6.015000	0.356743
	6.020000	0.373187
	6.025000	0.320567
	6.030000	0.304124
	6.035000	0.353454
	6.040000	0.363321
	6.045000	0.313990
	6.050000	0.300835
	6.055000	0.353454
	6.060000	0.366609
	6.065000	0.310701
	6.070000	0.300835
	6.075000	0.346877
	6.080000	0.360032
	6.085000	0.307412
	6.090000	0.297546
	6.095000	0.346877
	6.100000	0.363321
	6.105000	0.307412
	6.110000	0.297546
	6.115000	0.346877
	6.120000	0.356743
	6.125000	0.304124
	6.130000	0.297546
	6.135000	0.340299
	6.140000	0.356743
	6.145000	0.307412
	6.150000	0.290969
	6.155000	0.337011
	6.160000	0.353454
	6.165000	0.300835
	6.170000	0.284391
	6.175000	0.330433
	6.180000	0.350166
	6.185000	0.297546
	6.190000	0.281102
	6.195000	0.327145
	6.200000	0.340299
	6.205000	0.287680
	6.210000	0.274525
	6.215000	0.320567
	6.220000	0.337011
	6.225000	0.284391
	6.230000	0.264659
	6.235000	0.310701
	6.240000	0.327145
	6.245000	0.267948
	6.250000	0.258081
	6.255000	0.307412
	6.260000	0.323856
	6.265000	0.267948
	6.270000	0.248215
	6.275000	0.297546
	6.280000	0.317278
	6.285000	0.254793
	6.290000	0.238349
	6.295000	0.284391
	6.300000	0.304124
	6.305000	0.248215
	6.310000	0.231772
	6.315000	0.281102
	6.320000	0.294257
	6.325000	0.235060
	6.330000	0.221905
	6.335000	0.267948
	6.340000	0.281102
	6.345000	0.228483
	6.350000	0.208751
	6.355000	0.258081
	6.360000	0.274525
	6.365000	0.221905
	6.370000	0.198884
	6.375000	0.248215
	6.380000	0.261370
	6.385000	0.202173
	6.390000	0.182441
	6.395000	0.235060
	6.400000	0.251504
	6.405000	0.195596
	6.410000	0.172575
	6.415000	0.225194
	6.420000	0.241638
	6.425000	0.185730
	6.430000	0.169286
	6.435000	0.221905
	6.440000	0.231772
	6.445000	0.175863
	6.450000	0.159420
	6.455000	0.208751
	6.460000	0.225194
	6.465000	0.169286
	6.470000	0.146265
	6.475000	0.202173
	6.480000	0.215328
	6.485000	0.162708
	6.490000	0.142976
	6.495000	0.195596
	6.500000	0.208751
	6.505000	0.149554
	6.510000	0.136399
	6.515000	0.192307
	6.520000	0.208751
	6.525000	0.149554
	6.530000	0.133110
	6.535000	0.185730
	6.540000	0.202173
	6.545000	0.142976
	6.550000	0.116666
	6.555000	0.175863
	6.560000	0.192307
	6.565000	0.133110
	6.570000	0.113378
	6.575000	0.172575
	6.580000	0.185730
	6.585000	0.126533
	6.590000	0.106800
	6.595000	0.162708
	6.600000	0.182441
	6.605000	0.129821
	6.610000	0.106800
	6.615000	0.162708
	6.620000	0.182441
	6.625000	0.129821
	6.630000	0.106800
	6.635000	0.162708
	6.640000	0.185730
	6.645000	0.126533
	6.650000	0.110089
	6.655000	0.162708
	6.660000	0.182441
	6.665000	0.133110
	6.670000	0.113378
	6.675000	0.169286
	6.680000	0.182441
	6.685000	0.133110
	6.690000	0.106800
	6.695000	0.169286
	6.700000	0.185730
	6.705000	0.136399
	6.710000	0.113378
	6.715000	0.172575
	6.720000	0.185730
	6.725000	0.136399
	6.730000	0.116666
	6.735000	0.172575
	6.740000	0.195596
	6.745000	0.139687
	6.750000	0.123244
	6.755000	0.175863
	6.760000	0.195596
	6.765000	0.142976
	6.770000	0.123244
	6.775000	0.179152
	6.780000	0.198884
	6.785000	0.146265
	6.790000	0.123244
	6.795000	0.175863
	6.800000	0.202173
	6.805000	0.146265
	6.810000	0.126533
	6.815000	0.175863
	6.820000	0.202173
	6.825000	0.149554
	6.830000	0.129821
	6.835000	0.185730
	6.840000	0.208751
	6.845000	0.146265
	6.850000	0.129821
	6.855000	0.185730
	6.860000	0.208751
	6.865000	0.152842
	6.870000	0.133110
	6.875000	0.185730
	6.880000	0.208751
	6.885000	0.156131
	6.890000	0.133110
	6.895000	0.195596
	6.900000	0.212039
	6.905000	0.156131
	6.910000	0.136399
	6.915000	0.195596
	6.920000	0.218617
	6.925000	0.159420
	6.930000	0.142976
	6.935000	0.195596
	6.940000	0.215328
	6.945000	0.162708
	6.950000	0.139687
	6.955000	0.195596
	6.960000	0.218617
	6.965000	0.165997
	6.970000	0.142976
	6.975000	0.198884
	6.980000	0.221905
	6.985000	0.165997
	6.990000	0.146265
	6.995000	0.195596
	7.000000	0.225194
	7.005000	0.169286
	7.010000	0.146265
	7.015000	0.198884
	7.020000	0.225194
	7.025000	0.169286
	7.030000	0.146265
	7.035000	0.198884
	7.040000	0.221905
	7.045000	0.172575
	7.050000	0.149554
	7.055000	0.198884
	7.060000	0.228483
	7.065000	0.172575
	7.070000	0.146265
	7.075000	0.205462
	7.080000	0.228483
	7.085000	0.172575
	7.090000	0.152842
	7.095000	0.205462
	7.100000	0.225194
	7.105000	0.172575
	7.110000	0.152842
	7.115000	0.215328
	7.120000	0.228483
	7.125000	0.175863
	7.130000	0.156131
	7.135000	0.212039
	7.140000	0.225194
	7.145000	0.175863
	7.150000	0.152842
	7.155000	0.208751
	7.160000	0.231772
	7.165000	0.179152
	7.170000	0.152842
	7.175000	0.208751
	7.180000	0.235060
	7.185000	0.179152
	7.190000	0.156131
	7.195000	0.208751
	7.200000	0.235060
	7.205000	0.179152
	7.210000	0.156131
	7.215000	0.212039
	7.220000	0.235060
	7.225000	0.175863
	7.230000	0.156131
	7.235000	0.212039
	7.240000	0.238349
	7.245000	0.182441
	7.250000	0.159420
	7.255000	0.208751
	7.260000	0.235060
	7.265000	0.179152
	7.270000	0.162708
	7.275000	0.212039
	7.280000	0.238349
	7.285000	0.182441
	7.290000	0.162708
	7.295000	0.208751
	7.300000	0.238349
	7.305000	0.182441
	7.310000	0.152842
	7.315000	0.212039
	7.320000	0.235060
	7.325000	0.182441
	7.330000	0.159420
	7.335000	0.212039
	7.340000	0.238349
	7.345000	0.182441
	7.350000	0.159420
	7.355000	0.215328
	7.360000	0.241638
	7.365000	0.189018
	7.370000	0.159420
	7.375000	0.215328
	7.380000	0.238349
	7.385000	0.185730
	7.390000	0.162708
	7.395000	0.212039
	7.400000	0.241638
	7.405000	0.182441
	7.410000	0.159420
	7.415000	0.212039
	7.420000	0.241638
	7.425000	0.182441
	7.430000	0.162708
	7.435000	0.218617
	7.440000	0.241638
	7.445000	0.185730
	7.450000	0.169286
	7.455000	0.215328
	7.460000	0.241638
	7.465000	0.185730
	7.470000	0.162708
	7.475000	0.215328
	7.480000	0.238349
	7.485000	0.185730
	7.490000	0.162708
	7.495000	0.212039
	7.500000	0.244927
	7.505000	0.189018
	7.510000	0.169286
	7.515000	0.215328
	7.520000	0.241638
	7.525000	0.189018
	7.530000	0.169286
	7.535000	0.218617
	7.540000	0.241638
	7.545000	0.192307
	7.550000	0.169286
	7.555000	0.218617
	7.560000	0.248215
	7.565000	0.195596
	7.570000	0.165997
	7.575000	0.218617
	7.580000	0.248215
	7.585000	0.195596
	7.590000	0.169286
	7.595000	0.225194
	7.600000	0.248215
	7.605000	0.198884
	7.610000	0.175863
	7.615000	0.221905
	7.620000	0.244927
	7.625000	0.198884
	7.630000	0.172575
	7.635000	0.225194
	7.640000	0.251504
	7.645000	0.198884
	7.650000	0.172575
	7.655000	0.221905
	7.660000	0.254793
	7.665000	0.202173
	7.670000	0.175863
	7.675000	0.221905
	7.680000	0.254793
	7.685000	0.202173
	7.690000	0.172575
	7.695000	0.225194
	7.700000	0.258081
	7.705000	0.202173
	7.710000	0.175863
	7.715000	0.225194
	7.720000	0.251504
	7.725000	0.202173
	7.730000	0.172575
	7.735000	0.225194
	7.740000	0.254793
	7.745000	0.202173
	7.750000	0.172575
	7.755000	0.225194
	7.760000	0.258081
	7.765000	0.202173
	7.770000	0.169286
	7.775000	0.228483
	7.780000	0.254793
	7.785000	0.202173
	7.790000	0.172575
	7.795000	0.225194
	7.800000	0.258081
	7.805000	0.208751
	7.810000	0.175863
	7.815000	0.225194
	7.820000	0.258081
	7.825000	0.205462
	7.830000	0.175863
	7.835000	0.228483
	7.840000	0.258081
	7.845000	0.205462
	7.850000	0.175863
	7.855000	0.228483
	7.860000	0.261370
	7.865000	0.208751
	7.870000	0.175863
	7.875000	0.228483
	7.880000	0.258081
	7.885000	0.205462
	7.890000	0.179152
	7.895000	0.228483
	7.900000	0.261370
	7.905000	0.208751
	7.910000	0.179152
	7.915000	0.228483
	7.920000	0.258081
	7.925000	0.208751
	7.930000	0.175863
	7.935000	0.221905
	7.940000	0.254793
	7.945000	0.208751
	7.950000	0.182441
	7.955000	0.231772
	7.960000	0.261370
	7.965000	0.208751
	7.970000	0.179152
	7.975000	0.228483
	7.980000	0.254793
	7.985000	0.208751
	7.990000	0.179152
	7.995000	0.235060
	8.000000	0.258081
	8.005000	0.205462
	8.010000	0.179152
	8.015000	0.228483
	8.020000	0.258081
	8.025000	0.208751
	8.030000	0.182441
	8.035000	0.225194
	8.040000	0.254793
	8.045000	0.205462
	8.050000	0.175863
	8.055000	0.231772
	8.060000	0.258081
	8.065000	0.212039
	8.070000	0.182441
	8.075000	0.228483
	8.080000	0.261370
	8.085000	0.208751
	8.090000	0.182441
	8.095000	0.231772
	8.100000	0.258081
	8.105000	0.208751
	8.110000	0.175863
	8.115000	0.235060
	8.120000	0.264659
	8.125000	0.212039
	8.130000	0.179152
	8.135000	0.228483
	8.140000	0.258081
	8.145000	0.208751
	8.150000	0.175863
	8.155000	0.228483
	8.160000	0.261370
	8.165000	0.208751
	8.170000	0.179152
	8.175000	0.225194
	8.180000	0.264659
	8.185000	0.212039
	8.190000	0.175863
	8.195000	0.225194
	8.200000	0.261370
	8.205000	0.208751
	8.210000	0.182441
	8.215000	0.228483
	8.220000	0.258081
	8.225000	0.212039
	8.230000	0.179152
	8.235000	0.225194
	8.240000	0.261370
	8.245000	0.218617
	8.250000	0.185730
	8.255000	0.231772
	8.260000	0.261370
	8.265000	0.212039
	8.270000	0.185730
	8.275000	0.231772
	8.280000	0.261370
	8.285000	0.212039
	8.290000	0.182441
	8.295000	0.231772
	8.300000	0.264659
	8.305000	0.215328
	8.310000	0.185730
	8.315000	0.235060
	8.320000	0.261370
	8.325000	0.215328
	8.330000	0.182441
	8.335000	0.228483
	8.340000	0.261370
	8.345000	0.215328
	8.350000	0.189018
	8.355000	0.235060
	8.360000	0.264659
	8.365000	0.215328
	8.370000	0.185730
	8.375000	0.228483
	8.380000	0.264659
	8.385000	0.218617
	8.390000	0.182441
	8.395000	0.235060
	8.400000	0.264659
	8.405000	0.215328
	8.410000	0.182441
	8.415000	0.228483
	8.420000	0.267948
	8.425000	0.218617
	8.430000	0.185730
	8.435000	0.238349
	8.440000	0.267948
	8.445000	0.218617
	8.450000	0.189018
	8.455000	0.235060
	8.460000	0.267948
	8.465000	0.218617
	8.470000	0.185730
	8.475000	0.238349
	8.480000	0.274525
	8.485000	0.218617
	8.490000	0.189018
	8.495000	0.235060
	8.500000	0.271236
	8.505000	0.221905
	8.510000	0.185730
	8.515000	0.235060
	8.520000	0.274525
	8.525000	0.218617
	8.530000	0.195596
	8.535000	0.235060
	8.540000	0.267948
	8.545000	0.221905
	8.550000	0.185730
	8.555000	0.238349
	8.560000	0.267948
	8.565000	0.221905
	8.570000	0.185730
	8.575000	0.238349
	8.580000	0.271236
	8.585000	0.221905
	8.590000	0.189018
	8.595000	0.235060
	8.600000	0.267948
	8.605000	0.221905
	8.610000	0.189018
	8.615000	0.238349
	8.620000	0.267948
	8.625000	0.218617
	8.630000	0.189018
	8.635000	0.231772
	8.640000	0.267948
	8.645000	0.218617
	8.650000	0.185730
	8.655000	0.238349
	8.660000	0.274525
	8.665000	0.225194
	8.670000	0.189018
	8.675000	0.235060
	8.680000	0.267948
	8.685000	0.221905
	8.690000	0.189018
	8.695000	0.235060
	8.700000	0.271236
	8.705000	0.221905
	8.710000	0.185730
	8.715000	0.235060
	8.720000	0.274525
	8.725000	0.215328
	8.730000	0.189018
	8.735000	0.231772
	8.740000	0.267948
	8.745000	0.221905
	8.750000	0.189018
	8.755000	0.235060
	8.760000	0.267948
	8.765000	0.218617
	8.770000	0.189018
	8.775000	0.235060
	8.780000	0.267948
	8.785000	0.225194
	8.790000	0.185730
	8.795000	0.231772
	8.800000	0.271236
	8.805000	0.221905
	8.810000	0.185730
	8.815000	0.235060
	8.820000	0.267948
	8.825000	0.225194
	8.830000	0.189018
	8.835000	0.231772
	8.840000	0.267948
	8.845000	0.225194
	8.850000	0.185730
	8.855000	0.231772
	8.860000	0.271236
	8.865000	0.221905
	8.870000	0.189018
	8.875000	0.231772
	8.880000	0.274525
	8.885000	0.225194
	8.890000	0.185730
	8.895000	0.241638
	8.900000	0.271236
	8.905000	0.221905
	8.910000	0.185730
	8.915000	0.238349
	8.920000	0.274525
	8.925000	0.221905
	8.930000	0.189018
	8.935000	0.235060
	8.940000	0.274525
	8.945000	0.231772
	8.950000	0.195596
	8.955000	0.238349
	8.960000	0.274525
	8.965000	0.225194
	8.970000	0.182441
	8.975000	0.235060
	8.980000	0.274525
	8.985000	0.225194
	8.990000	0.192307
	8.995000	0.231772
	9.000000	0.274525
	9.005000	0.225194
	9.010000	0.189018
	9.015000	0.235060
	9.020000	0.277814
	9.025000	0.228483
	9.030000	0.189018
	9.035000	0.238349
	9.040000	0.274525
	9.045000	0.225194
	9.050000	0.189018
	9.055000	0.238349
	9.060000	0.274525
	9.065000	0.231772
	9.070000	0.189018
	9.075000	0.238349
	9.080000	0.274525
	9.085000	0.228483
	9.090000	0.189018
	9.095000	0.238349
	9.100000	0.274525
	9.105000	0.225194
	9.110000	0.192307
	9.115000	0.238349
	9.120000	0.274525
	9.125000	0.221905
	9.130000	0.189018
	9.135000	0.235060
	9.140000	0.274525
	9.145000	0.228483
	9.150000	0.195596
	9.155000	0.238349
	9.160000	0.277814
	9.165000	0.231772
	9.170000	0.192307
	9.175000	0.235060
	9.180000	0.277814
	9.185000	0.235060
	9.190000	0.192307
	9.195000	0.235060
	9.200000	0.271236
	9.205000	0.228483
	9.210000	0.195596
	9.215000	0.238349
	9.220000	0.274525
	9.225000	0.228483
	9.230000	0.195596
	9.235000	0.238349
	9.240000	0.281102
	9.245000	0.228483
	9.250000	0.195596
	9.255000	0.238349
	9.260000	0.281102
	9.265000	0.228483
	9.270000	0.192307
	9.275000	0.238349
	9.280000	0.277814
	9.285000	0.235060
	9.290000	0.195596
	9.295000	0.235060
	9.300000	0.277814
	9.305000	0.228483
	9.310000	0.195596
	9.315000	0.241638
	9.320000	0.277814
	9.325000	0.231772
	9.330000	0.195596
	9.335000	0.238349
	9.340000	0.274525
	9.345000	0.231772
	9.350000	0.195596
	9.355000	0.235060
	9.360000	0.277814
	9.365000	0.225194
	9.370000	0.198884
	9.375000	0.235060
	9.380000	0.274525
	9.385000	0.231772
	9.390000	0.192307
	9.395000	0.235060
	9.400000	0.277814
	9.405000	0.235060
	9.410000	0.195596
	9.415000	0.235060
	9.420000	0.274525
	9.425000	0.235060
	9.430000	0.198884
	9.435000	0.238349
	9.440000	0.281102
	9.445000	0.231772
	9.450000	0.198884
	9.455000	0.238349
	9.460000	0.281102
	9.465000	0.235060
	9.470000	0.195596
	9.475000	0.241638
	9.480000	0.281102
	9.485000	0.235060
	9.490000	0.192307
	9.495000	0.241638
	9.500000	0.281102
	9.505000	0.235060
	9.510000	0.198884
	9.515000	0.241638
	9.520000	0.281102
	9.525000	0.235060
	9.530000	0.202173
	9.535000	0.241638
	9.540000	0.281102
	9.545000	0.235060
	9.550000	0.202173
	9.555000	0.241638
	9.560000	0.277814
	9.565000	0.238349
	9.570000	0.195596
	9.575000	0.241638
	9.580000	0.284391
	9.585000	0.238349
	9.590000	0.198884
	9.595000	0.241638
	9.600000	0.281102
	9.605000	0.238349
	9.610000	0.195596
	9.615000	0.241638
	9.620000	0.281102
	9.625000	0.241638
	9.630000	0.195596
	9.635000	0.244927
	9.640000	0.287680
	9.645000	0.238349
	9.650000	0.202173
	9.655000	0.238349
	9.660000	0.281102
	9.665000	0.238349
	9.670000	0.202173
	9.675000	0.235060
	9.680000	0.277814
	9.685000	0.235060
	9.690000	0.202173
	9.695000	0.241638
	9.700000	0.287680
	9.705000	0.241638
	9.710000	0.198884
	9.715000	0.244927
	9.720000	0.284391
	9.725000	0.248215
	9.730000	0.208751
	9.735000	0.244927
	9.740000	0.287680
	9.745000	0.238349
	9.750000	0.205462
	9.755000	0.244927
	9.760000	0.284391
	9.765000	0.238349
	9.770000	0.202173
	9.775000	0.244927
	9.780000	0.287680
	9.785000	0.241638
	9.790000	0.205462
	9.795000	0.248215
	9.800000	0.287680
	9.805000	0.248215
	9.810000	0.202173
	9.815000	0.248215
	9.820000	0.290969
	9.825000	0.251504
	9.830000	0.212039
	9.835000	0.248215
	9.840000	0.287680
	9.845000	0.248215
	9.850000	0.208751
	9.855000	0.248215
	9.860000	0.290969
	9.865000	0.248215
	9.870000	0.208751
	9.875000	0.251504
	9.880000	0.287680
	9.885000	0.248215
	9.890000	0.212039
	9.895000	0.251504
	9.900000	0.287680
	9.905000	0.248215
	9.910000	0.202173
	9.915000	0.248215
	9.920000	0.287680
	9.925000	0.244927
	9.930000	0.202173
	9.935000	0.248215
	9.940000	0.287680
	9.945000	0.248215
	9.950000	0.205462
	9.955000	0.248215
	9.960000	0.284391
	9.965000	0.244927
	9.970000	0.205462
	9.975000	0.248215
	9.980000	0.284391
	9.985000	0.248215
	9.990000	0.202173
	9.995000	0.241638
	10.000000	0.287680
	10.005000	0.241638
	10.010000	0.202173
	10.015000	0.241638
	10.020000	0.290969
	10.025000	0.241638
	10.030000	0.205462
	10.035000	0.241638
	10.040000	0.281102
	10.045000	0.244927
	10.050000	0.198884
	10.055000	0.241638
	10.060000	0.287680
	10.065000	0.238349
	10.070000	0.202173
	10.075000	0.241638
	10.080000	0.277814
	10.085000	0.238349
	10.090000	0.195596
	10.095000	0.235060
	10.100000	0.277814
	10.105000	0.235060
	10.110000	0.195596
	10.115000	0.235060
	10.120000	0.277814
	10.125000	0.235060
	10.130000	0.192307
	10.135000	0.235060
	10.140000	0.274525
	10.145000	0.238349
	10.150000	0.189018
	10.155000	0.228483
	10.160000	0.277814
	10.165000	0.235060
	10.170000	0.189018
	10.175000	0.231772
	10.180000	0.274525
	10.185000	0.235060
	10.190000	0.192307
	10.195000	0.228483
	10.200000	0.277814
	10.205000	0.235060
	10.210000	0.192307
	10.215000	0.231772
	10.220000	0.274525
	10.225000	0.235060
	10.230000	0.195596
	10.235000	0.235060
	10.240000	0.281102
	10.245000	0.235060
	10.250000	0.202173
	10.255000	0.238349
	10.260000	0.277814
	10.265000	0.238349
	10.270000	0.192307
	10.275000	0.231772
	10.280000	0.277814
	10.285000	0.231772
	10.290000	0.195596
	10.295000	0.231772
	10.300000	0.274525
	10.305000	0.235060
	10.310000	0.195596
	10.315000	0.231772
	10.320000	0.274525
	10.325000	0.235060
	10.330000	0.189018
	10.335000	0.235060
	10.340000	0.274525
	10.345000	0.238349
	10.350000	0.192307
	10.355000	0.228483
	10.360000	0.274525
	10.365000	0.235060
	10.370000	0.192307
	10.375000	0.231772
	10.380000	0.277814
	10.385000	0.244927
	10.390000	0.195596
	10.395000	0.244927
	10.400000	0.294257
	10.405000	0.261370
	10.410000	0.218617
	10.415000	0.261370
	10.420000	0.313990
	10.425000	0.277814
	10.430000	0.244927
	10.435000	0.277814
	10.440000	0.327145
	10.445000	0.294257
	10.450000	0.258081
	10.455000	0.294257
	10.460000	0.343588
	10.465000	0.313990
	10.470000	0.267948
	10.475000	0.307412
	10.480000	0.356743
	10.485000	0.323856
	10.490000	0.284391
	10.495000	0.323856
	10.500000	0.366609
	10.505000	0.333722
	10.510000	0.297546
	10.515000	0.330433
	10.520000	0.373187
	10.525000	0.346877
	10.530000	0.304124
	10.535000	0.346877
	10.540000	0.389630
	10.545000	0.356743
	10.550000	0.313990
	10.555000	0.350166
	10.560000	0.389630
	10.565000	0.356743
	10.570000	0.313990
	10.575000	0.340299
	10.580000	0.386342
	10.585000	0.353454
	10.590000	0.307412
	10.595000	0.337011
	10.600000	0.379764
	10.605000	0.343588
	10.610000	0.300835
	10.615000	0.337011
	10.620000	0.376475
	10.625000	0.346877
	10.630000	0.300835
	10.635000	0.330433
	10.640000	0.379764
	10.645000	0.346877
	10.650000	0.300835
	10.655000	0.340299
	10.660000	0.379764
	10.665000	0.353454
	10.670000	0.310701
	10.675000	0.343588
	10.680000	0.389630
	10.685000	0.356743
	10.690000	0.310701
	10.695000	0.346877
	10.700000	0.389630
	10.705000	0.363321
	10.710000	0.320567
	10.715000	0.350166
	10.720000	0.392919
	10.725000	0.363321
	10.730000	0.320567
	10.735000	0.356743
	10.740000	0.396208
	10.745000	0.360032
	10.750000	0.320567
	10.755000	0.346877
	10.760000	0.389630
	10.765000	0.360032
	10.770000	0.313990
	10.775000	0.346877
	10.780000	0.389630
	10.785000	0.356743
	10.790000	0.317278
	10.795000	0.343588
	10.800000	0.386342
	10.805000	0.353454
	10.810000	0.313990
	10.815000	0.346877
	10.820000	0.383053
	10.825000	0.356743
	10.830000	0.307412
	10.835000	0.343588
	10.840000	0.379764
	10.845000	0.353454
	10.850000	0.313990
	10.855000	0.333722
	10.860000	0.373187
	10.865000	0.343588
	10.870000	0.300835
	10.875000	0.333722
	10.880000	0.369898
	10.885000	0.337011
	10.890000	0.297546
	10.895000	0.327145
	10.900000	0.369898
	10.905000	0.340299
	10.910000	0.290969
	10.915000	0.317278
	10.920000	0.350166
	10.925000	0.323856
	10.930000	0.267948
	10.935000	0.300835
	10.940000	0.346877
	10.945000	0.307412
	10.950000	0.267948
	10.955000	0.294257
	10.960000	0.333722
	10.965000	0.300835
	10.970000	0.251504
	10.975000	0.284391
	10.980000	0.317278
	10.985000	0.284391
	10.990000	0.238349
	10.995000	0.267948
	11.000000	0.307412
	11.005000	0.271236
	11.010000	0.221905
	11.015000	0.254793
	11.020000	0.294257
	11.025000	0.261370
	11.030000	0.215328
	11.035000	0.241638
	11.040000	0.287680
	11.045000	0.251504
	11.050000	0.205462
	11.055000	0.231772
	11.060000	0.274525
	11.065000	0.244927
	11.070000	0.195596
	11.075000	0.221905
	11.080000	0.267948
	11.085000	0.235060
	11.090000	0.189018
	11.095000	0.221905
	11.100000	0.267948
	11.105000	0.235060
	11.110000	0.189018
	11.115000	0.215328
	11.120000	0.258081
	11.125000	0.231772
	11.130000	0.182441
	11.135000	0.212039
	11.140000	0.258081
	11.145000	0.225194
	11.150000	0.179152
	11.155000	0.202173
	11.160000	0.254793
	11.165000	0.221905
	11.170000	0.175863
	11.175000	0.208751
	11.180000	0.254793
	11.185000	0.221905
	11.190000	0.175863
	11.195000	0.202173
	11.200000	0.254793
	11.205000	0.221905
	11.210000	0.169286
	11.215000	0.205462
	11.220000	0.244927
	11.225000	0.212039
	11.230000	0.159420
	11.235000	0.192307
	11.240000	0.241638
	11.245000	0.208751
	11.250000	0.159420
	11.255000	0.192307
	11.260000	0.235060
	11.265000	0.205462
	11.270000	0.159420
	11.275000	0.189018
	11.280000	0.238349
	11.285000	0.208751
	11.290000	0.162708
	11.295000	0.195596
	11.300000	0.238349
	11.305000	0.208751
	11.310000	0.159420
	11.315000	0.198884
	11.320000	0.238349
	11.325000	0.212039
	11.330000	0.159420
	11.335000	0.192307
	11.340000	0.244927
	11.345000	0.215328
	11.350000	0.162708
	11.355000	0.189018
	11.360000	0.248215
	11.365000	0.208751
	11.370000	0.162708
	11.375000	0.198884
	11.380000	0.248215
	11.385000	0.218617
	11.390000	0.165997
	11.395000	0.198884
	11.400000	0.254793
	11.405000	0.221905
	11.410000	0.169286
	11.415000	0.202173
	11.420000	0.251504
	11.425000	0.221905
	11.430000	0.172575
	11.435000	0.202173
	11.440000	0.251504
	11.445000	0.221905
	11.450000	0.175863
	11.455000	0.208751
	11.460000	0.254793
	11.465000	0.228483
	11.470000	0.172575
	11.475000	0.208751
	11.480000	0.264659
	11.485000	0.228483
	11.490000	0.175863
	11.495000	0.208751
	11.500000	0.258081
	11.505000	0.228483
	11.510000	0.179152
	11.515000	0.205462
	11.520000	0.261370
	11.525000	0.231772
	11.530000	0.179152
	11.535000	0.212039
	11.540000	0.258081
	11.545000	0.231772
	11.550000	0.182441
	11.555000	0.212039
	11.560000	0.264659
	11.565000	0.235060
	11.570000	0.182441
	11.575000	0.212039
	11.580000	0.264659
	11.585000	0.238349
	11.590000	0.182441
	11.595000	0.215328
	11.600000	0.267948
	11.605000	0.235060
	11.610000	0.182441
	11.615000	0.215328
	11.620000	0.261370
	11.625000	0.231772
	11.630000	0.185730
	11.635000	0.218617
	11.640000	0.267948
	11.645000	0.231772
	11.650000	0.189018
	11.655000	0.218617
	11.660000	0.267948
	11.665000	0.231772
	11.670000	0.185730
	11.675000	0.215328
	11.680000	0.264659
	11.685000	0.238349
	11.690000	0.185730
	11.695000	0.215328
	11.700000	0.267948
	11.705000	0.241638
	11.710000	0.189018
	11.715000	0.215328
	11.720000	0.261370
	11.725000	0.241638
	11.730000	0.185730
	11.735000	0.215328
	11.740000	0.264659
	11.745000	0.231772
	11.750000	0.189018
	11.755000	0.215328
	11.760000	0.267948
	11.765000	0.235060
	11.770000	0.185730
	11.775000	0.218617
	11.780000	0.267948
	11.785000	0.241638
	11.790000	0.185730
	11.795000	0.215328
	11.800000	0.264659
	11.805000	0.241638
	11.810000	0.189018
	11.815000	0.218617
	11.820000	0.271236
	11.825000	0.241638
	11.830000	0.192307
	11.835000	0.218617
	11.840000	0.274525
	11.845000	0.244927
	11.850000	0.192307
	11.855000	0.215328
	11.860000	0.267948
	11.865000	0.244927
	11.870000	0.195596
	11.875000	0.221905
	11.880000	0.274525
	11.885000	0.248215
	11.890000	0.195596
	11.895000	0.221905
	11.900000	0.277814
	11.905000	0.251504
	11.910000	0.198884
	11.915000	0.228483
	11.920000	0.281102
	11.925000	0.251504
	11.930000	0.202173
	11.935000	0.228483
	11.940000	0.287680
	11.945000	0.258081
	11.950000	0.205462
	11.955000	0.235060
	11.960000	0.284391
	11.965000	0.254793
	11.970000	0.208751
	11.975000	0.235060
	11.980000	0.287680
	11.985000	0.261370
	11.990000	0.208751
	11.995000	0.238349
	12.000000	0.290969
	12.005000	0.264659
	12.010000	0.215328
	12.015000	0.241638
	12.020000	0.290969
	12.025000	0.264659
	12.030000	0.215328
	12.035000	0.241638
	12.040000	0.294257
	12.045000	0.271236
	12.050000	0.221905
	12.055000	0.244927
	12.060000	0.297546
	12.065000	0.267948
	12.070000	0.218617
	12.075000	0.244927
	12.080000	0.297546
	12.085000	0.274525
	12.090000	0.221905
	12.095000	0.248215
	12.100000	0.297546
	12.105000	0.274525
	12.110000	0.218617
	12.115000	0.248215
	12.120000	0.300835
	12.125000	0.267948
	12.130000	0.218617
	12.135000	0.248215
	12.140000	0.297546
	12.145000	0.274525
	12.150000	0.221905
	12.155000	0.241638
	12.160000	0.297546
	12.165000	0.274525
	12.170000	0.218617
	12.175000	0.248215
	12.180000	0.304124
	12.185000	0.274525
	12.190000	0.221905
	12.195000	0.244927
	12.200000	0.300835
	12.205000	0.277814
	12.210000	0.225194
	12.215000	0.244927
	12.220000	0.300835
	12.225000	0.274525
	12.230000	0.221905
	12.235000	0.248215
	12.240000	0.300835
	12.245000	0.277814
	12.250000	0.221905
	12.255000	0.248215
	12.260000	0.300835
	12.265000	0.281102
	12.270000	0.225194
	12.275000	0.244927
	12.280000	0.307412
	12.285000	0.277814
	12.290000	0.225194
	12.295000	0.248215
	12.300000	0.300835
	12.305000	0.277814
	12.310000	0.225194
	12.315000	0.254793
	12.320000	0.304124
	12.325000	0.281102
	12.330000	0.225194
	12.335000	0.251504
	12.340000	0.304124
	12.345000	0.277814
	12.350000	0.225194
	12.355000	0.248215
	12.360000	0.300835
	12.365000	0.287680
	12.370000	0.228483
	12.375000	0.254793
	12.380000	0.304124
	12.385000	0.281102
	12.390000	0.228483
	12.395000	0.248215
	12.400000	0.307412
	12.405000	0.284391
	12.410000	0.228483
	12.415000	0.251504
	12.420000	0.313990
	12.425000	0.290969
	12.430000	0.231772
	12.435000	0.258081
	12.440000	0.310701
	12.445000	0.287680
	12.450000	0.231772
	12.455000	0.251504
	12.460000	0.310701
	12.465000	0.284391
	12.470000	0.231772
	12.475000	0.251504
	12.480000	0.307412
	12.485000	0.287680
	12.490000	0.228483
	12.495000	0.254793
	12.500000	0.307412
	12.505000	0.287680
	12.510000	0.228483
	12.515000	0.254793
	12.520000	0.310701
	12.525000	0.281102
	12.530000	0.228483
	12.535000	0.251504
	12.540000	0.304124
	12.545000	0.287680
	12.550000	0.231772
	12.555000	0.248215
	12.560000	0.300835
	12.565000	0.281102
	12.570000	0.228483
	12.575000	0.251504
	12.580000	0.307412
	12.585000	0.287680
	12.590000	0.228483
	12.595000	0.251504
	12.600000	0.307412
	12.605000	0.277814
	12.610000	0.228483
	12.615000	0.251504
	12.620000	0.304124
	12.625000	0.287680
	12.630000	0.228483
	12.635000	0.248215
	12.640000	0.304124
	12.645000	0.281102
	12.650000	0.228483
	12.655000	0.248215
	12.660000	0.304124
	12.665000	0.284391
	12.670000	0.221905
	12.675000	0.248215
	12.680000	0.304124
	12.685000	0.277814
	12.690000	0.221905
	12.695000	0.244927
	12.700000	0.297546
	12.705000	0.284391
	12.710000	0.221905
	12.715000	0.251504
	12.720000	0.304124
	12.725000	0.284391
	12.730000	0.228483
	12.735000	0.248215
	12.740000	0.304124
	12.745000	0.281102
	12.750000	0.228483
	12.755000	0.248215
	12.760000	0.300835
	12.765000	0.284391
	12.770000	0.225194
	12.775000	0.248215
	12.780000	0.304124
	12.785000	0.284391
	12.790000	0.225194
	12.795000	0.248215
	12.800000	0.304124
	12.805000	0.284391
	12.810000	0.228483
	12.815000	0.244927
	12.820000	0.307412
	12.825000	0.284391
	12.830000	0.225194
	12.835000	0.248215
	12.840000	0.304124
	12.845000	0.284391
	12.850000	0.231772
	12.855000	0.248215
	12.860000	0.304124
	12.865000	0.284391
	12.870000	0.228483
	12.875000	0.248215
	12.880000	0.307412
	12.885000	0.287680
	12.890000	0.228483
	12.895000	0.248215
	12.900000	0.300835
	12.905000	0.287680
	12.910000	0.228483
	12.915000	0.254793
	12.920000	0.307412
	12.925000	0.284391
	12.930000	0.228483
	12.935000	0.244927
	12.940000	0.307412
	12.945000	0.284391
	12.950000	0.228483
	12.955000	0.251504
	12.960000	0.304124
	12.965000	0.284391
	12.970000	0.228483
	12.975000	0.251504
	12.980000	0.300835
	12.985000	0.284391
	12.990000	0.228483
	12.995000	0.248215
	13.000000	0.300835
	13.005000	0.287680
	13.010000	0.228483
	13.015000	0.244927
	13.020000	0.307412
	13.025000	0.287680
	13.030000	0.225194
	13.035000	0.248215
	13.040000	0.304124
	13.045000	0.287680
	13.050000	0.231772
	13.055000	0.248215
	13.060000	0.304124
	13.065000	0.290969
	13.070000	0.228483
	13.075000	0.248215
	13.080000	0.300835
	13.085000	0.287680
	13.090000	0.225194
	13.095000	0.241638
	13.100000	0.297546
	13.105000	0.284391
	13.110000	0.228483
	13.115000	0.244927
	13.120000	0.304124
	13.125000	0.287680
	13.130000	0.225194
	13.135000	0.244927
	13.140000	0.300835
	13.145000	0.284391
	13.150000	0.225194
	13.155000	0.244927
	13.160000	0.300835
	13.165000	0.284391
	13.170000	0.228483
	13.175000	0.248215
	13.180000	0.300835
	13.185000	0.284391
	13.190000	0.228483
	13.195000	0.238349
	13.200000	0.294257
	13.205000	0.284391
	13.210000	0.221905
	13.215000	0.241638
	13.220000	0.297546
	13.225000	0.277814
	13.230000	0.225194
	13.235000	0.241638
	13.240000	0.294257
	13.245000	0.281102
	13.250000	0.221905
	13.255000	0.241638
	13.260000	0.290969
	13.265000	0.281102
	13.270000	0.221905
	13.275000	0.238349
	13.280000	0.297546
	13.285000	0.281102
	13.290000	0.221905
	13.295000	0.238349
	13.300000	0.297546
	13.305000	0.281102
	13.310000	0.225194
	13.315000	0.238349
	13.320000	0.294257
	13.325000	0.284391
	13.330000	0.225194
	13.335000	0.238349
	13.340000	0.294257
	13.345000	0.281102
	13.350000	0.221905
	13.355000	0.241638
	13.360000	0.294257
	13.365000	0.277814
	13.370000	0.225194
	13.375000	0.235060
	13.380000	0.290969
	13.385000	0.281102
	13.390000	0.221905
	13.395000	0.235060
	13.400000	0.290969
	13.405000	0.281102
	13.410000	0.221905
	13.415000	0.238349
	13.420000	0.297546
	13.425000	0.281102
	13.430000	0.221905
	13.435000	0.241638
	13.440000	0.294257
	13.445000	0.277814
	13.450000	0.225194
	13.455000	0.238349
	13.460000	0.297546
	13.465000	0.284391
	13.470000	0.225194
	13.475000	0.241638
	13.480000	0.297546
	13.485000	0.284391
	13.490000	0.221905
	13.495000	0.241638
	13.500000	0.290969
	13.505000	0.281102
	13.510000	0.225194
	13.515000	0.241638
	13.520000	0.294257
	13.525000	0.284391
	13.530000	0.225194
	13.535000	0.238349
	13.540000	0.294257
	13.545000	0.287680
	13.550000	0.228483
	13.555000	0.238349
	13.560000	0.300835
	13.565000	0.287680
	13.570000	0.228483
	13.575000	0.241638
	13.580000	0.294257
	13.585000	0.284391
	13.590000	0.228483
	13.595000	0.241638
	13.600000	0.294257
	13.605000	0.281102
	13.610000	0.225194
	13.615000	0.241638
	13.620000	0.294257
	13.625000	0.290969
	13.630000	0.228483
	13.635000	0.241638
	13.640000	0.297546
	13.645000	0.287680
	13.650000	0.225194
	13.655000	0.241638
	13.660000	0.297546
	13.665000	0.281102
	13.670000	0.225194
	13.675000	0.241638
	13.680000	0.294257
	13.685000	0.284391
	13.690000	0.225194
	13.695000	0.235060
	13.700000	0.294257
	13.705000	0.287680
	13.710000	0.225194
	13.715000	0.238349
	13.720000	0.290969
	13.725000	0.284391
	13.730000	0.225194
	13.735000	0.241638
	13.740000	0.290969
	13.745000	0.287680
	13.750000	0.221905
	13.755000	0.238349
	13.760000	0.294257
	13.765000	0.281102
	13.770000	0.221905
	13.775000	0.238349
	13.780000	0.297546
	13.785000	0.284391
	13.790000	0.225194
	13.795000	0.238349
	13.800000	0.297546
	13.805000	0.290969
	13.810000	0.221905
	13.815000	0.235060
	13.820000	0.294257
	13.825000	0.287680
	13.830000	0.225194
	13.835000	0.235060
	13.840000	0.294257
	13.845000	0.277814
	13.850000	0.225194
	13.855000	0.241638
	13.860000	0.300835
	13.865000	0.287680
	13.870000	0.225194
	13.875000	0.241638
	13.880000	0.297546
	13.885000	0.284391
	13.890000	0.228483
	13.895000	0.244927
	13.900000	0.300835
	13.905000	0.287680
	13.910000	0.228483
	13.915000	0.238349
	13.920000	0.300835
	13.925000	0.284391
	13.930000	0.228483
	13.935000	0.238349
	13.940000	0.294257
	13.945000	0.290969
	13.950000	0.231772
	13.955000	0.241638
	13.960000	0.297546
	13.965000	0.287680
	13.970000	0.231772
	13.975000	0.244927
	13.980000	0.297546
	13.985000	0.287680
	13.990000	0.231772
	13.995000	0.241638
	14.000000	0.300835
	14.005000	0.290969
	14.010000	0.228483
	14.015000	0.241638
	14.020000	0.297546
	14.025000	0.287680
	14.030000	0.231772
	14.035000	0.241638
	14.040000	0.297546
	14.045000	0.287680
	14.050000	0.228483
	14.055000	0.238349
	14.060000	0.297546
	14.065000	0.287680
	14.070000	0.231772
	14.075000	0.238349
	14.080000	0.297546
	14.085000	0.287680
	14.090000	0.228483
	14.095000	0.244927
	14.100000	0.297546
	14.105000	0.287680
	14.110000	0.228483
	14.115000	0.238349
	14.120000	0.297546
	14.125000	0.290969
	14.130000	0.228483
	14.135000	0.238349
	14.140000	0.294257
	14.145000	0.287680
	14.150000	0.228483
	14.155000	0.238349
	14.160000	0.290969
	14.165000	0.287680
	14.170000	0.231772
	14.175000	0.235060
	14.180000	0.290969
	14.185000	0.284391
	14.190000	0.221905
	14.195000	0.235060
	14.200000	0.294257
	14.205000	0.287680
	14.210000	0.225194
	14.215000	0.241638
	14.220000	0.290969
	14.225000	0.281102
	14.230000	0.225194
	14.235000	0.235060
	14.240000	0.290969
	14.245000	0.284391
	14.250000	0.225194
	14.255000	0.235060
	14.260000	0.297546
	14.265000	0.284391
	14.270000	0.228483
	14.275000	0.235060
	14.280000	0.287680
	14.285000	0.281102
	14.290000	0.228483
	14.295000	0.238349
	14.300000	0.294257
	14.305000	0.287680
	14.310000	0.231772
	14.315000	0.235060
	14.320000	0.290969
	14.325000	0.290969
	14.330000	0.228483
	14.335000	0.235060
	14.340000	0.294257
	14.345000	0.284391
	14.350000	0.231772
	14.355000	0.238349
	14.360000	0.297546
	14.365000	0.287680
	14.370000	0.231772
	14.375000	0.238349
	14.380000	0.297546
	14.385000	0.287680
	14.390000	0.228483
	14.395000	0.238349
	14.400000	0.297546
	14.405000	0.284391
	14.410000	0.228483
	14.415000	0.235060
	14.420000	0.290969
	14.425000	0.284391
	14.430000	0.225194
	14.435000	0.235060
	14.440000	0.290969
	14.445000	0.290969
	14.450000	0.225194
	14.455000	0.238349
	14.460000	0.290969
	14.465000	0.284391
	14.470000	0.231772
	14.475000	0.235060
	14.480000	0.290969
	14.485000	0.287680
	14.490000	0.225194
	14.495000	0.228483
	14.500000	0.294257
	14.505000	0.281102
	14.510000	0.228483
	14.515000	0.235060
	14.520000	0.287680
	14.525000	0.290969
	14.530000	0.228483
	14.535000	0.235060
	14.540000	0.290969
	14.545000	0.281102
	14.550000	0.228483
	14.555000	0.235060
	14.560000	0.290969
	14.565000	0.287680
	14.570000	0.225194
	14.575000	0.231772
	14.580000	0.287680
	14.585000	0.281102
	14.590000	0.228483
	14.595000	0.231772
	14.600000	0.290969
	14.605000	0.284391
	14.610000	0.221905
	14.615000	0.235060
	14.620000	0.290969
	14.625000	0.281102
	14.630000	0.221905
	14.635000	0.228483
	14.640000	0.290969
	14.645000	0.287680
	14.650000	0.228483
	14.655000	0.231772
	14.660000	0.290969
	14.665000	0.284391
	14.670000	0.221905
	14.675000	0.228483
	14.680000	0.287680
	14.685000	0.281102
	14.690000	0.221905
	14.695000	0.228483
	14.700000	0.287680
	14.705000	0.281102
	14.710000	0.225194
	14.715000	0.231772
	14.720000	0.287680
	14.725000	0.284391
	14.730000	0.225194
	14.735000	0.228483
	14.740000	0.287680
	14.745000	0.284391
	14.750000	0.225194
	14.755000	0.231772
	14.760000	0.290969
	14.765000	0.290969
	14.770000	0.225194
	14.775000	0.228483
	14.780000	0.290969
	14.785000	0.284391
	14.790000	0.228483
	14.795000	0.235060
	14.800000	0.287680
	14.805000	0.284391
	14.810000	0.228483
	14.815000	0.225194
	14.820000	0.287680
	14.825000	0.284391
	14.830000	0.228483
	14.835000	0.228483
	14.840000	0.284391
	14.845000	0.287680
	14.850000	0.221905
	14.855000	0.225194
	14.860000	0.281102
	14.865000	0.287680
	14.870000	0.218617
	14.875000	0.228483
	14.880000	0.287680
	14.885000	0.287680
	14.890000	0.225194
	14.895000	0.231772
	14.900000	0.287680
	14.905000	0.281102
	14.910000	0.225194
	14.915000	0.231772
	14.920000	0.284391
	14.925000	0.287680
	14.930000	0.225194
	14.935000	0.231772
	14.940000	0.287680
	14.945000	0.287680
	14.950000	0.221905
	14.955000	0.231772
	14.960000	0.287680
	14.965000	0.284391
	14.970000	0.221905
	14.975000	0.225194
	14.980000	0.287680
	14.985000	0.284391
	14.990000	0.221905
	14.995000	0.228483
	15.000000	0.287680
	15.005000	0.281102
	15.010000	0.221905
	15.015000	0.228483
	15.020000	0.287680
	15.025000	0.281102
	15.030000	0.225194
	15.035000	0.225194
	15.040000	0.281102
	15.045000	0.281102
	15.050000	0.221905
	15.055000	0.221905
	15.060000	0.284391
	15.065000	0.284391
	15.070000	0.225194
	15.075000	0.225194
	15.080000	0.277814
	15.085000	0.281102
	15.090000	0.221905
	15.095000	0.228483
	15.100000	0.284391
	15.105000	0.281102
	15.110000	0.221905
	15.115000	0.225194
	15.120000	0.284391
	15.125000	0.281102
	15.130000	0.221905
	15.135000	0.225194
	15.140000	0.284391
	15.145000	0.281102
	15.150000	0.228483
	15.155000	0.228483
	15.160000	0.281102
	15.165000	0.284391
	15.170000	0.228483
	15.175000	0.231772
	15.180000	0.290969
	15.185000	0.300835
	15.190000	0.241638
	15.195000	0.248215
	15.200000	0.310701
	15.205000	0.313990
	15.210000	0.261370
	15.215000	0.267948
	15.220000	0.327145
	15.225000	0.330433
	15.230000	0.277814
	15.235000	0.284391
	15.240000	0.337011
	15.245000	0.343588
	15.250000	0.287680
	15.255000	0.290969
	15.260000	0.353454
	15.265000	0.353454
	15.270000	0.300835
	15.275000	0.304124
	15.280000	0.360032
	15.285000	0.360032
	15.290000	0.307412
	15.295000	0.310701
	15.300000	0.363321
	15.305000	0.363321
	15.310000	0.317278
	15.315000	0.313990
	15.320000	0.373187
	15.325000	0.379764
	15.330000	0.320567
	15.335000	0.333722
	15.340000	0.379764
	15.345000	0.386342
	15.350000	0.327145
	15.355000	0.330433
	15.360000	0.386342
	15.365000	0.392919
	15.370000	0.333722
	15.375000	0.330433
	15.380000	0.386342
	15.385000	0.386342
	15.390000	0.330433
	15.395000	0.333722
	15.400000	0.383053
	15.405000	0.379764
	15.410000	0.327145
	15.415000	0.330433
	15.420000	0.383053
	15.425000	0.389630
	15.430000	0.333722
	15.435000	0.333722
	15.440000	0.386342
	15.445000	0.392919
	15.450000	0.340299
	15.455000	0.340299
	15.460000	0.392919
	15.465000	0.392919
	15.470000	0.346877
	15.475000	0.340299
	15.480000	0.399496
	15.485000	0.402785
	15.490000	0.346877
	15.495000	0.346877
	15.500000	0.399496
	15.505000	0.406074
	15.510000	0.350166
	15.515000	0.350166
	15.520000	0.402785
	15.525000	0.409363
	15.530000	0.360032
	15.535000	0.353454
	15.540000	0.409363
	15.545000	0.409363
	15.550000	0.356743
	15.555000	0.356743
	15.560000	0.406074
	15.565000	0.412651
	15.570000	0.353454
	15.575000	0.350166
	15.580000	0.406074
	15.585000	0.406074
	15.590000	0.353454
	15.595000	0.350166
	15.600000	0.399496
	15.605000	0.406074
	15.610000	0.353454
	15.615000	0.353454
	15.620000	0.399496
	15.625000	0.399496
	15.630000	0.350166
	15.635000	0.346877
	15.640000	0.396208
	15.645000	0.396208
	15.650000	0.343588
	15.655000	0.343588
	15.660000	0.392919
	15.665000	0.392919
	15.670000	0.343588
	15.675000	0.340299
	15.680000	0.389630
	15.685000	0.386342
	15.690000	0.333722
	15.695000	0.327145
	15.700000	0.373187
	15.705000	0.383053
	15.710000	0.327145
	15.715000	0.320567
	15.720000	0.369898
	15.725000	0.373187
	15.730000	0.313990
	15.735000	0.307412
	15.740000	0.356743
	15.745000	0.360032
	15.750000	0.304124
	15.755000	0.297546
	15.760000	0.346877
	15.765000	0.346877
	15.770000	0.290969
	15.775000	0.284391
	15.780000	0.333722
	15.785000	0.333722
	15.790000	0.281102
	15.795000	0.274525
	15.800000	0.323856
	15.805000	0.323856
	15.810000	0.264659
	15.815000	0.261370
	15.820000	0.317278
	15.825000	0.313990
	15.830000	0.258081
	15.835000	0.254793
	15.840000	0.304124
	15.845000	0.304124
	15.850000	0.248215
	15.855000	0.238349
	15.860000	0.294257
	15.865000	0.297546
	15.870000	0.241638
	15.875000	0.235060
	15.880000	0.290969
	15.885000	0.290969
	15.890000	0.235060
	15.895000	0.231772
	15.900000	0.287680
	15.905000	0.290969
	15.910000	0.231772
	15.915000	0.221905
	15.920000	0.281102
	15.925000	0.281102
	15.930000	0.225194
	15.935000	0.221905
	15.940000	0.277814
	15.945000	0.281102
	15.950000	0.221905
	15.955000	0.215328
	15.960000	0.274525
	15.965000	0.281102
	15.970000	0.212039
	15.975000	0.212039
	15.980000	0.271236
	15.985000	0.271236
	15.990000	0.208751
	15.995000	0.208751
	16.000000	0.258081
	16.005000	0.264659
	16.010000	0.205462
	16.015000	0.202173
	16.020000	0.258081
	16.025000	0.264659
	16.030000	0.205462
	16.035000	0.198884
	16.040000	0.254793
	16.045000	0.261370
	16.050000	0.208751
	16.055000	0.202173
	16.060000	0.258081
	16.065000	0.258081
	16.070000	0.202173
	16.075000	0.198884
	16.080000	0.254793
	16.085000	0.267948
	16.090000	0.205462
	16.095000	0.198884
	16.100000	0.261370
	16.105000	0.264659
	16.110000	0.208751
	16.115000	0.202173
	16.120000	0.258081
	16.125000	0.264659
	16.130000	0.208751
	16.135000	0.202173
	16.140000	0.261370
	16.145000	0.264659
	16.150000	0.205462
	16.155000	0.205462
	16.160000	0.258081
	16.165000	0.264659
	16.170000	0.208751
	16.175000	0.202173
	16.180000	0.261370
	16.185000	0.271236
	16.190000	0.212039
	16.195000	0.202173
	16.200000	0.258081
	16.205000	0.267948
	16.210000	0.212039
	16.215000	0.205462
	16.220000	0.261370
	16.225000	0.267948
	16.230000	0.215328
	16.235000	0.205462
	16.240000	0.261370
	16.245000	0.267948
	16.250000	0.215328
	16.255000	0.205462
	16.260000	0.267948
	16.265000	0.277814
	16.270000	0.212039
	16.275000	0.208751
	16.280000	0.264659
	16.285000	0.274525
	16.290000	0.215328
	16.295000	0.212039
	16.300000	0.267948
	16.305000	0.271236
	16.310000	0.215328
	16.315000	0.205462
	16.320000	0.267948
	16.325000	0.274525
	16.330000	0.212039
	16.335000	0.212039
	16.340000	0.264659
	16.345000	0.274525
	16.350000	0.212039
	16.355000	0.205462
	16.360000	0.267948
	16.365000	0.274525
	16.370000	0.218617
	16.375000	0.208751
	16.380000	0.264659
	16.385000	0.271236
	16.390000	0.218617
	16.395000	0.212039
	16.400000	0.271236
	16.405000	0.274525
	16.410000	0.221905
	16.415000	0.215328
	16.420000	0.271236
	16.425000	0.277814
	16.430000	0.218617
	16.435000	0.215328
	16.440000	0.274525
	16.445000	0.277814
	16.450000	0.221905
	16.455000	0.218617
	16.460000	0.264659
	16.465000	0.281102
	16.470000	0.221905
	16.475000	0.215328
	16.480000	0.274525
	16.485000	0.281102
	16.490000	0.221905
	16.495000	0.218617
	16.500000	0.277814
	16.505000	0.290969
	16.510000	0.225194
	16.515000	0.215328
	16.520000	0.274525
	16.525000	0.290969
	16.530000	0.225194
	16.535000	0.221905
	16.540000	0.277814
	16.545000	0.284391
	16.550000	0.228483
	16.555000	0.221905
	16.560000	0.284391
	16.565000	0.287680
	16.570000	0.228483
	16.575000	0.221905
	16.580000	0.281102
	16.585000	0.287680
	16.590000	0.228483
	16.595000	0.221905
	16.600000	0.277814
	16.605000	0.287680
	16.610000	0.231772
	16.615000	0.221905
	16.620000	0.281102
	16.625000	0.290969
	16.630000	0.231772
	16.635000	0.225194
	16.640000	0.281102
	16.645000	0.290969
	16.650000	0.238349
	16.655000	0.225194
	16.660000	0.284391
	16.665000	0.287680
	16.670000	0.235060
	16.675000	0.228483
	16.680000	0.287680
	16.685000	0.294257
	16.690000	0.238349
	16.695000	0.225194
	16.700000	0.284391
	16.705000	0.297546
	16.710000	0.235060
	16.715000	0.225194
	16.720000	0.284391
	16.725000	0.294257
	16.730000	0.235060
	16.735000	0.225194
	16.740000	0.284391
	16.745000	0.294257
	16.750000	0.235060
	16.755000	0.231772
	16.760000	0.287680
	16.765000	0.294257
	16.770000	0.238349
	16.775000	0.228483
	16.780000	0.284391
	16.785000	0.294257
	16.790000	0.238349
	16.795000	0.228483
	16.800000	0.284391
	16.805000	0.294257
	16.810000	0.235060
	16.815000	0.228483
	16.820000	0.287680
	16.825000	0.300835
	16.830000	0.238349
	16.835000	0.228483
	16.840000	0.290969
	16.845000	0.297546
	16.850000	0.238349
	16.855000	0.228483
	16.860000	0.290969
	16.865000	0.300835
	16.870000	0.235060
	16.875000	0.231772
	16.880000	0.290969
	16.885000	0.297546
	16.890000	0.238349
	16.895000	0.228483
	16.900000	0.290969
	16.905000	0.297546
	16.910000	0.241638
	16.915000	0.235060
	16.920000	0.290969
	16.925000	0.300835
	16.930000	0.244927
	16.935000	0.235060
	16.940000	0.290969
	16.945000	0.300835
	16.950000	0.248215
	16.955000	0.231772
	16.960000	0.287680
	16.965000	0.300835
	16.970000	0.238349
	16.975000	0.235060
	16.980000	0.284391
	16.985000	0.300835
	16.990000	0.244927
	16.995000	0.235060
	17.000000	0.290969
	17.005000	0.300835
	17.010000	0.241638
	17.015000	0.231772
	17.020000	0.290969
	17.025000	0.300835
	17.030000	0.244927
	17.035000	0.231772
	17.040000	0.287680
	17.045000	0.300835
	17.050000	0.238349
	17.055000	0.228483
	17.060000	0.290969
	17.065000	0.307412
	17.070000	0.244927
	17.075000	0.235060
	17.080000	0.290969
	17.085000	0.304124
	17.090000	0.244927
	17.095000	0.235060
	17.100000	0.294257
	17.105000	0.307412
	17.110000	0.248215
	17.115000	0.231772
	17.120000	0.287680
	17.125000	0.304124
	17.130000	0.241638
	17.135000	0.235060
	17.140000	0.294257
	17.145000	0.304124
	17.150000	0.244927
	17.155000	0.235060
	17.160000	0.290969
	17.165000	0.300835
	17.170000	0.248215
	17.175000	0.231772
	17.180000	0.294257
	17.185000	0.307412
	17.190000	0.244927
	17.195000	0.238349
	17.200000	0.290969
	17.205000	0.304124
	17.210000	0.251504
	17.215000	0.235060
	17.220000	0.290969
	17.225000	0.304124
	17.230000	0.248215
	17.235000	0.235060
	17.240000	0.294257
	17.245000	0.307412
	17.250000	0.248215
	17.255000	0.235060
	17.260000	0.294257
	17.265000	0.307412
	17.270000	0.248215
	17.275000	0.235060
	17.280000	0.294257
	17.285000	0.307412
	17.290000	0.244927
	17.295000	0.231772
	17.300000	0.290969
	17.305000	0.310701
	17.310000	0.248215
	17.315000	0.238349
	17.320000	0.294257
	17.325000	0.307412
	17.330000	0.251504
	17.335000	0.235060
	17.340000	0.290969
	17.345000	0.304124
	17.350000	0.248215
	17.355000	0.235060
	17.360000	0.294257
	17.365000	0.307412
	17.370000	0.251504
	17.375000	0.238349
	17.380000	0.294257
	17.385000	0.307412
	17.390000	0.248215
	17.395000	0.235060
	17.400000	0.297546
	17.405000	0.310701
	17.410000	0.248215
	17.415000	0.238349
	17.420000	0.290969
	17.425000	0.307412
	17.430000	0.248215
	17.435000	0.238349
	17.440000	0.294257
	17.445000	0.310701
	17.450000	0.251504
	17.455000	0.241638
	17.460000	0.294257
	17.465000	0.307412
	17.470000	0.251504
	17.475000	0.238349
	17.480000	0.294257
	17.485000	0.307412
	17.490000	0.254793
	17.495000	0.231772
	17.500000	0.294257
	17.505000	0.304124
	17.510000	0.251504
	17.515000	0.238349
	17.520000	0.294257
	17.525000	0.310701
	17.530000	0.248215
	17.535000	0.238349
	17.540000	0.300835
	17.545000	0.310701
	17.550000	0.254793
	17.555000	0.235060
	17.560000	0.300835
	17.565000	0.310701
	17.570000	0.248215
	17.575000	0.241638
	17.580000	0.294257
	17.585000	0.310701
	17.590000	0.254793
	17.595000	0.235060
	17.600000	0.297546
	17.605000	0.313990
	17.610000	0.254793
	17.615000	0.241638
	17.620000	0.294257
	17.625000	0.313990
	17.630000	0.254793
	17.635000	0.241638
	17.640000	0.297546
	17.645000	0.317278
	17.650000	0.254793
	17.655000	0.238349
	17.660000	0.294257
	17.665000	0.317278
	17.670000	0.254793
	17.675000	0.241638
	17.680000	0.297546
	17.685000	0.313990
	17.690000	0.258081
	17.695000	0.241638
	17.700000	0.297546
	17.705000	0.313990
	17.710000	0.254793
	17.715000	0.238349
	17.720000	0.297546
	17.725000	0.317278
	17.730000	0.251504
	17.735000	0.238349
	17.740000	0.300835
	17.745000	0.317278
	17.750000	0.254793
	17.755000	0.241638
	17.760000	0.297546
	17.765000	0.317278
	17.770000	0.258081
	17.775000	0.241638
	17.780000	0.297546
	17.785000	0.313990
	17.790000	0.258081
	17.795000	0.248215
	17.800000	0.300835
	17.805000	0.317278
	17.810000	0.258081
	17.815000	0.244927
	17.820000	0.294257
	17.825000	0.313990
	17.830000	0.251504
	17.835000	0.238349
	17.840000	0.297546
	17.845000	0.313990
	17.850000	0.258081
	17.855000	0.238349
	17.860000	0.300835
	17.865000	0.313990
	17.870000	0.251504
	17.875000	0.238349
	17.880000	0.294257
	17.885000	0.313990
	17.890000	0.254793
	17.895000	0.241638
	17.900000	0.294257
	17.905000	0.313990
	17.910000	0.254793
	17.915000	0.238349
	17.920000	0.294257
	17.925000	0.317278
	17.930000	0.261370
	17.935000	0.238349
	17.940000	0.297546
	17.945000	0.317278
	17.950000	0.254793
	17.955000	0.241638
	17.960000	0.297546
	17.965000	0.317278
	17.970000	0.258081
	17.975000	0.241638
	17.980000	0.294257
	17.985000	0.313990
	17.990000	0.254793
	17.995000	0.235060
	18.000000	0.297546
	18.005000	0.317278
	18.010000	0.258081
	18.015000	0.244927
	18.020000	0.297546
	18.025000	0.317278
	18.030000	0.261370
	18.035000	0.241638
	18.040000	0.297546
	18.045000	0.313990
	18.050000	0.254793
	18.055000	0.241638
	18.060000	0.300835
	18.065000	0.313990
	18.070000	0.258081
	18.075000	0.238349
	18.080000	0.294257
	18.085000	0.313990
	18.090000	0.254793
	18.095000	0.238349
	18.100000	0.297546
	18.105000	0.313990
	18.110000	0.254793
	18.115000	0.238349
	18.120000	0.294257
	18.125000	0.317278
	18.130000	0.261370
	18.135000	0.241638
	18.140000	0.294257
	18.145000	0.313990
	18.150000	0.261370
	18.155000	0.235060
	18.160000	0.290969
	18.165000	0.313990
	18.170000	0.258081
	18.175000	0.238349
	18.180000	0.294257
	18.185000	0.313990
	18.190000	0.251504
	18.195000	0.241638
	18.200000	0.290969
	18.205000	0.310701
	18.210000	0.258081
	18.215000	0.238349
	18.220000	0.290969
	18.225000	0.310701
	18.230000	0.258081
	18.235000	0.241638
	18.240000	0.290969
	18.245000	0.313990
	18.250000	0.258081
	18.255000	0.238349
	18.260000	0.290969
	18.265000	0.313990
	18.270000	0.254793
	18.275000	0.238349
	18.280000	0.294257
	18.285000	0.310701
	18.290000	0.254793
	18.295000	0.241638
	18.300000	0.290969
	18.305000	0.313990
	18.310000	0.258081
	18.315000	0.235060
	18.320000	0.294257
	18.325000	0.310701
	18.330000	0.258081
	18.335000	0.238349
	18.340000	0.297546
	18.345000	0.310701
	18.350000	0.258081
	18.355000	0.241638
	18.360000	0.290969
	18.365000	0.317278
	18.370000	0.258081
	18.375000	0.238349
	18.380000	0.294257
	18.385000	0.310701
	18.390000	0.261370
	18.395000	0.235060
	18.400000	0.294257
	18.405000	0.320567
	18.410000	0.258081
	18.415000	0.238349
	18.420000	0.294257
	18.425000	0.317278
	18.430000	0.258081
	18.435000	0.241638
	18.440000	0.294257
	18.445000	0.313990
	18.450000	0.261370
	18.455000	0.238349
	18.460000	0.304124
	18.465000	0.320567
	18.470000	0.267948
	18.475000	0.241638
	18.480000	0.297546
	18.485000	0.313990
	18.490000	0.261370
	18.495000	0.244927
	18.500000	0.297546
	18.505000	0.317278
	18.510000	0.258081
	18.515000	0.244927
	18.520000	0.297546
	18.525000	0.320567
	18.530000	0.264659
	18.535000	0.238349
	18.540000	0.294257
	18.545000	0.317278
	18.550000	0.264659
	18.555000	0.244927
	18.560000	0.297546
	18.565000	0.320567
	18.570000	0.261370
	18.575000	0.241638
	18.580000	0.297546
	18.585000	0.320567
	18.590000	0.264659
	18.595000	0.241638
	18.600000	0.297546
	18.605000	0.320567
	18.610000	0.267948
	18.615000	0.248215
	18.620000	0.297546
	18.625000	0.323856
	18.630000	0.261370
	18.635000	0.248215
	18.640000	0.300835
	18.645000	0.320567
	18.650000	0.261370
	18.655000	0.244927
	18.660000	0.297546
	18.665000	0.320567
	18.670000	0.261370
	18.675000	0.244927
	18.680000	0.300835
	18.685000	0.323856
	18.690000	0.267948
	18.695000	0.244927
	18.700000	0.294257
	18.705000	0.323856
	18.710000	0.264659
	18.715000	0.241638
	18.720000	0.300835
	18.725000	0.320567
	18.730000	0.264659
	18.735000	0.244927
	18.740000	0.304124
	18.745000	0.320567
	18.750000	0.271236
	18.755000	0.248215
	18.760000	0.300835
	18.765000	0.323856
	18.770000	0.264659
	18.775000	0.251504
	18.780000	0.297546
	18.785000	0.320567
	18.790000	0.267948
	18.795000	0.248215
	18.800000	0.300835
	18.805000	0.323856
	18.810000	0.267948
	18.815000	0.241638
	18.820000	0.300835
	18.825000	0.323856
	18.830000	0.267948
	18.835000	0.248215
	18.840000	0.300835
	18.845000	0.323856
	18.850000	0.267948
	18.855000	0.244927
	18.860000	0.300835
	18.865000	0.327145
	18.870000	0.267948
	18.875000	0.244927
	18.880000	0.304124
	18.885000	0.323856
	18.890000	0.267948
	18.895000	0.248215
	18.900000	0.300835
	18.905000	0.323856
	18.910000	0.264659
	18.915000	0.244927
	18.920000	0.300835
	18.925000	0.327145
	18.930000	0.271236
	18.935000	0.241638
	18.940000	0.300835
	18.945000	0.323856
	18.950000	0.267948
	18.955000	0.244927
	18.960000	0.304124
	18.965000	0.323856
	18.970000	0.267948
	18.975000	0.248215
	18.980000	0.300835
	18.985000	0.320567
	18.990000	0.274525
	18.995000	0.241638
	19.000000	0.300835
	19.005000	0.323856
	19.010000	0.267948
	19.015000	0.244927
	19.020000	0.304124
	19.025000	0.323856
	19.030000	0.274525
	19.035000	0.241638
	19.040000	0.297546
	19.045000	0.323856
	19.050000	0.267948
	19.055000	0.244927
	19.060000	0.304124
	19.065000	0.323856
	19.070000	0.267948
	19.075000	0.248215
	19.080000	0.297546
	19.085000	0.327145
	19.090000	0.264659
	19.095000	0.244927
	19.100000	0.304124
	19.105000	0.327145
	19.110000	0.267948
	19.115000	0.254793
	19.120000	0.304124
	19.125000	0.323856
	19.130000	0.271236
	19.135000	0.251504
	19.140000	0.300835
	19.145000	0.320567
	19.150000	0.271236
	19.155000	0.248215
	19.160000	0.297546
	19.165000	0.323856
	19.170000	0.267948
	19.175000	0.241638
	19.180000	0.300835
	19.185000	0.327145
	19.190000	0.267948
	19.195000	0.251504
	19.200000	0.297546
	19.205000	0.327145
	19.210000	0.274525
	19.215000	0.248215
	19.220000	0.300835
	19.225000	0.327145
	19.230000	0.267948
	19.235000	0.241638
	19.240000	0.300835
	19.245000	0.327145
	19.250000	0.271236
	19.255000	0.244927
	19.260000	0.297546
	19.265000	0.327145
	19.270000	0.264659
	19.275000	0.241638
	19.280000	0.300835
	19.285000	0.323856
	19.290000	0.267948
	19.295000	0.244927
	19.300000	0.300835
	19.305000	0.327145
	19.310000	0.271236
	19.315000	0.248215
	19.320000	0.300835
	19.325000	0.323856
	19.330000	0.267948
	19.335000	0.244927
	19.340000	0.297546
	19.345000	0.327145
	19.350000	0.271236
	19.355000	0.248215
	19.360000	0.290969
	19.365000	0.323856
	19.370000	0.264659
	19.375000	0.248215
	19.380000	0.297546
	19.385000	0.320567
	19.390000	0.267948
	19.395000	0.248215
	19.400000	0.297546
	19.405000	0.323856
	19.410000	0.264659
	19.415000	0.244927
	19.420000	0.297546
	19.425000	0.320567
	19.430000	0.267948
	19.435000	0.244927
	19.440000	0.290969
	19.445000	0.320567
	19.450000	0.264659
	19.455000	0.241638
	19.460000	0.294257
	19.465000	0.317278
	19.470000	0.264659
	19.475000	0.244927
	19.480000	0.290969
	19.485000	0.320567
	19.490000	0.264659
	19.495000	0.241638
	19.500000	0.290969
	19.505000	0.320567
	19.510000	0.264659
	19.515000	0.241638
	19.520000	0.287680
	19.525000	0.317278
	19.530000	0.261370
	19.535000	0.238349
	19.540000	0.297546
	19.545000	0.317278
	19.550000	0.271236
	19.555000	0.238349
	19.560000	0.290969
	19.565000	0.320567
	19.570000	0.264659
	19.575000	0.244927
	19.580000	0.287680
	19.585000	0.317278
	19.590000	0.267948
	19.595000	0.241638
	19.600000	0.284391
	19.605000	0.317278
	19.610000	0.264659
	19.615000	0.235060
	19.620000	0.290969
	19.625000	0.317278
	19.630000	0.261370
	19.635000	0.241638
	19.640000	0.290969
	19.645000	0.317278
	19.650000	0.261370
	19.655000	0.238349
	19.660000	0.290969
	19.665000	0.317278
	19.670000	0.261370
	19.675000	0.241638
	19.680000	0.294257
	19.685000	0.317278
	19.690000	0.261370
	19.695000	0.235060
	19.700000	0.290969
	19.705000	0.313990
	19.710000	0.261370
	19.715000	0.238349
	19.720000	0.290969
	19.725000	0.317278
	19.730000	0.261370
	19.735000	0.241638
	19.740000	0.287680
	19.745000	0.320567
	19.750000	0.264659
	19.755000	0.238349
	19.760000	0.294257
	19.765000	0.320567
	19.770000	0.267948
	19.775000	0.248215
	19.780000	0.304124
	19.785000	0.333722
	19.790000	0.281102
	19.795000	0.261370
	19.800000	0.310701
	19.805000	0.346877
	19.810000	0.294257
	19.815000	0.271236
	19.820000	0.327145
	19.825000	0.353454
	19.830000	0.304124
	19.835000	0.287680
	19.840000	0.330433
	19.845000	0.366609
	19.850000	0.320567
	19.855000	0.297546
	19.860000	0.340299
	19.865000	0.373187
	19.870000	0.320567
	19.875000	0.304124
	19.880000	0.353454
	19.885000	0.379764
	19.890000	0.330433
	19.895000	0.307412
	19.900000	0.363321
	19.905000	0.383053
	19.910000	0.340299
	19.915000	0.320567
	19.920000	0.373187
	19.925000	0.396208
	19.930000	0.353454
	19.935000	0.327145
	19.940000	0.379764
	19.945000	0.399496
	19.950000	0.350166
	19.955000	0.327145
	19.960000	0.376475
	19.965000	0.402785
	19.970000	0.350166
	19.975000	0.330433
	19.980000	0.379764
	19.985000	0.402785
	19.990000	0.356743
	19.995000	0.337011
	20.000000	0.379764
	20.005000	0.406074
	20.010000	0.363321
	20.015000	0.337011
	20.020000	0.383053
	20.025000	0.409363
	20.030000	0.360032
	20.035000	0.343588
	20.040000	0.386342
	20.045000	0.412651
	20.050000	0.369898
	20.055000	0.350166
	20.060000	0.392919
	20.065000	0.419229
	20.070000	0.369898
	20.075000	0.346877
	20.080000	0.396208
	20.085000	0.422518
	20.090000	0.373187
	20.095000	0.343588
	20.100000	0.402785
	20.105000	0.425806
	20.110000	0.373187
	20.115000	0.353454
	20.120000	0.396208
	20.125000	0.422518
	20.130000	0.376475
	20.135000	0.353454
	20.140000	0.392919
	20.145000	0.422518
	20.150000	0.369898
	20.155000	0.346877
	20.160000	0.396208
	20.165000	0.419229
	20.170000	0.373187
	20.175000	0.346877
	20.180000	0.392919
	20.185000	0.415940
	20.190000	0.369898
	20.195000	0.346877
	20.200000	0.389630
	20.205000	0.409363
	20.210000	0.366609
	20.215000	0.340299
	20.220000	0.383053
	20.225000	0.409363
	20.230000	0.363321
	20.235000	0.333722
	20.240000	0.379764
	20.245000	0.406074
	20.250000	0.356743
	20.255000	0.327145
	20.260000	0.369898
	20.265000	0.399496
	20.270000	0.353454
	20.275000	0.320567
	20.280000	0.363321
	20.285000	0.389630
	20.290000	0.340299
	20.295000	0.307412
	20.300000	0.356743
	20.305000	0.376475
	20.310000	0.330433
	20.315000	0.304124
	20.320000	0.346877
	20.325000	0.369898
	20.330000	0.327145
	20.335000	0.294257
	20.340000	0.343588
	20.345000	0.360032
	20.350000	0.310701
	20.355000	0.284391
	20.360000	0.330433
	20.365000	0.353454
	20.370000	0.300835
	20.375000	0.277814
	20.380000	0.320567
	20.385000	0.340299
	20.390000	0.294257
	20.395000	0.264659
	20.400000	0.313990
	20.405000	0.333722
	20.410000	0.284391
	20.415000	0.258081
	20.420000	0.307412
	20.425000	0.330433
	20.430000	0.281102
	20.435000	0.251504
	20.440000	0.294257
	20.445000	0.323856
	20.450000	0.274525
	20.455000	0.248215
	20.460000	0.294257
	20.465000	0.323856
	20.470000	0.274525
	20.475000	0.241638
	20.480000	0.294257
	20.485000	0.317278
	20.490000	0.267948
	20.495000	0.238349
	20.500000	0.287680
	20.505000	0.317278
	20.510000	0.258081
	20.515000	0.231772
	20.520000	0.284391
	20.525000	0.310701
	20.530000	0.258081
	20.535000	0.235060
	20.540000	0.277814
	20.545000	0.307412
	20.550000	0.254793
	20.555000	0.225194
	20.560000	0.271236
	20.565000	0.300835
	20.570000	0.248215
	20.575000	0.221905
	20.580000	0.267948
	20.585000	0.294257
	20.590000	0.241638
	20.595000	0.212039
	20.600000	0.264659
	20.605000	0.297546
	20.610000	0.241638
	20.615000	0.221905
	20.620000	0.264659
	20.625000	0.297546
	20.630000	0.241638
	20.635000	0.215328
	20.640000	0.267948
	20.645000	0.294257
	20.650000	0.244927
	20.655000	0.218617
	20.660000	0.267948
	20.665000	0.297546
	20.670000	0.244927
	20.675000	0.215328
	20.680000	0.271236
	20.685000	0.304124
	20.690000	0.244927
	20.695000	0.225194
	20.700000	0.274525
	20.705000	0.297546
	20.710000	0.251504
	20.715000	0.221905
	20.720000	0.274525
	20.725000	0.300835
	20.730000	0.251504
	20.735000	0.225194
	20.740000	0.271236
	20.745000	0.304124
	20.750000	0.254793
	20.755000	0.225194
	20.760000	0.277814
	20.765000	0.300835
	20.770000	0.251504
	20.775000	0.225194
	20.780000	0.274525
	20.785000	0.307412
	20.790000	0.251504
	20.795000	0.228483
	20.800000	0.281102
	20.805000	0.304124
	20.810000	0.258081
	20.815000	0.221905
	20.820000	0.271236
	20.825000	0.310701
	20.830000	0.254793
	20.835000	0.221905
	20.840000	0.277814
	20.845000	0.307412
	20.850000	0.254793
	20.855000	0.231772
	20.860000	0.277814
	20.865000	0.310701
	20.870000	0.254793
	20.875000	0.228483
	20.880000	0.281102
	20.885000	0.317278
	20.890000	0.258081
	20.895000	0.231772
	20.900000	0.274525
	20.905000	0.313990
	20.910000	0.261370
	20.915000	0.231772
	20.920000	0.277814
	20.925000	0.313990
	20.930000	0.261370
	20.935000	0.231772
	20.940000	0.284391
	20.945000	0.317278
	20.950000	0.258081
	20.955000	0.231772
	20.960000	0.281102
	20.965000	0.317278
	20.970000	0.261370
	20.975000	0.228483
	20.980000	0.284391
	20.985000	0.317278
	20.990000	0.261370
	20.995000	0.228483
	21.000000	0.284391
	21.005000	0.317278
	21.010000	0.261370
	21.015000	0.238349
	21.020000	0.287680
	21.025000	0.317278
	21.030000	0.261370
	21.035000	0.231772
	21.040000	0.281102
	21.045000	0.310701
	21.050000	0.261370
	21.055000	0.235060
	21.060000	0.284391
	21.065000	0.320567
	21.070000	0.267948
	21.075000	0.235060
	21.080000	0.290969
	21.085000	0.313990
	21.090000	0.264659
	21.095000	0.235060
	21.100000	0.284391
	21.105000	0.317278
	21.110000	0.261370
	21.115000	0.235060
	21.120000	0.284391
	21.125000	0.317278
	21.130000	0.264659
	21.135000	0.241638
	21.140000	0.290969
	21.145000	0.320567
	21.150000	0.271236
	21.155000	0.241638
	21.160000	0.290969
	21.165000	0.320567
	21.170000	0.264659
	21.175000	0.244927
	21.180000	0.284391
	21.185000	0.323856
	21.190000	0.267948
	21.195000	0.241638
	21.200000	0.294257
	21.205000	0.320567
	21.210000	0.271236
	21.215000	0.238349
	21.220000	0.290969
	21.225000	0.320567
	21.230000	0.271236
	21.235000	0.238349
	21.240000	0.287680
	21.245000	0.320567
	21.250000	0.271236
	21.255000	0.241638
	21.260000	0.290969
	21.265000	0.327145
	21.270000	0.274525
	21.275000	0.241638
	21.280000	0.290969
	21.285000	0.327145
	21.290000	0.277814
	21.295000	0.244927
	21.300000	0.287680
	21.305000	0.327145
	21.310000	0.274525
	21.315000	0.238349
	21.320000	0.294257
	21.325000	0.327145
	21.330000	0.274525
	21.335000	0.248215
	21.340000	0.294257
	21.345000	0.323856
	21.350000	0.274525
	21.355000	0.248215
	21.360000	0.294257
	21.365000	0.320567
	21.370000	0.277814
	21.375000	0.241638
	21.380000	0.297546
	21.385000	0.323856
	21.390000	0.274525
	21.395000	0.248215
	21.400000	0.294257
	21.405000	0.323856
	21.410000	0.277814
	21.415000	0.241638
	21.420000	0.294257
	21.425000	0.323856
	21.430000	0.274525
	21.435000	0.244927
	21.440000	0.297546
	21.445000	0.327145
	21.450000	0.274525
	21.455000	0.251504
	21.460000	0.294257
	21.465000	0.327145
	21.470000	0.277814
	21.475000	0.244927
	21.480000	0.297546
	21.485000	0.327145
	21.490000	0.274525
	21.495000	0.244927
	21.500000	0.290969
	21.505000	0.323856
	21.510000	0.277814
	21.515000	0.244927
	21.520000	0.294257
	21.525000	0.323856
	21.530000	0.277814
	21.535000	0.241638
	21.540000	0.300835
	21.545000	0.323856
	21.550000	0.271236
	21.555000	0.244927
	21.560000	0.294257
	21.565000	0.323856
	21.570000	0.274525
	21.575000	0.244927
	21.580000	0.294257
	21.585000	0.323856
	21.590000	0.274525
	21.595000	0.241638
	21.600000	0.297546
	21.605000	0.330433
	21.610000	0.274525
	21.615000	0.244927
	21.620000	0.294257
	21.625000	0.330433
	21.630000	0.271236
	21.635000	0.244927
	21.640000	0.297546
	21.645000	0.327145
	21.650000	0.281102
	21.655000	0.248215
	21.660000	0.297546
	21.665000	0.330433
	21.670000	0.274525
	21.675000	0.244927
	21.680000	0.297546
	21.685000	0.330433
	21.690000	0.277814
	21.695000	0.244927
	21.700000	0.294257
	21.705000	0.330433
	21.710000	0.277814
	21.715000	0.248215
	21.720000	0.300835
	21.725000	0.327145
	21.730000	0.277814
	21.735000	0.244927
	21.740000	0.297546
	21.745000	0.327145
	21.750000	0.274525
	21.755000	0.244927
	21.760000	0.294257
	21.765000	0.323856
	21.770000	0.281102
	21.775000	0.248215
	21.780000	0.300835
	21.785000	0.327145
	21.790000	0.281102
	21.795000	0.248215
	21.800000	0.300835
	21.805000	0.327145
	21.810000	0.284391
	21.815000	0.248215
	21.820000	0.297546
	21.825000	0.327145
	21.830000	0.277814
	21.835000	0.251504
	21.840000	0.294257
	21.845000	0.330433
	21.850000	0.284391
	21.855000	0.248215
	21.860000	0.300835
	21.865000	0.333722
	21.870000	0.281102
	21.875000	0.251504
	21.880000	0.307412
	21.885000	0.333722
	21.890000	0.287680
	21.895000	0.254793
	21.900000	0.300835
	21.905000	0.333722
	21.910000	0.284391
	21.915000	0.251504
	21.920000	0.307412
	21.925000	0.337011
	21.930000	0.290969
	21.935000	0.254793
	21.940000	0.304124
	21.945000	0.337011
	21.950000	0.284391
	21.955000	0.251504
	21.960000	0.304124
	21.965000	0.337011
	21.970000	0.284391
	21.975000	0.258081
	21.980000	0.304124
	21.985000	0.337011
	21.990000	0.287680
	21.995000	0.254793
	22.000000	0.300835
	22.005000	0.333722
	22.010000	0.284391
	22.015000	0.251504
	22.020000	0.300835
	22.025000	0.337011
	22.030000	0.281102
	22.035000	0.251504
	22.040000	0.304124
	22.045000	0.333722
	22.050000	0.284391
	22.055000	0.251504
	22.060000	0.300835
	22.065000	0.333722
	22.070000	0.284391
	22.075000	0.251504
	22.080000	0.300835
	22.085000	0.333722
	22.090000	0.281102
	22.095000	0.251504
	22.100000	0.304124
	22.105000	0.337011
	22.110000	0.287680
	22.115000	0.254793
	22.120000	0.300835
	22.125000	0.333722
	22.130000	0.281102
	22.135000	0.251504
	22.140000	0.300835
	22.145000	0.333722
	22.150000	0.281102
	22.155000	0.251504
	22.160000	0.300835
	22.165000	0.330433
	22.170000	0.281102
	22.175000	0.248215
	22.180000	0.304124
	22.185000	0.333722
	22.190000	0.277814
	22.195000	0.248215
	22.200000	0.297546
	22.205000	0.330433
	22.210000	0.281102
	22.215000	0.251504
	22.220000	0.304124
	22.225000	0.330433
	22.230000	0.281102
	22.235000	0.248215
	22.240000	0.297546
	22.245000	0.330433
	22.250000	0.281102
	22.255000	0.251504
	22.260000	0.297546
	22.265000	0.333722
	22.270000	0.277814
	22.275000	0.248215
	22.280000	0.300835
	22.285000	0.333722
	22.290000	0.281102
	22.295000	0.248215
	22.300000	0.297546
	22.305000	0.337011
	22.310000	0.284391
	22.315000	0.251504
	22.320000	0.300835
	22.325000	0.333722
	22.330000	0.281102
	22.335000	0.248215
	22.340000	0.294257
	22.345000	0.330433
	22.350000	0.281102
	22.355000	0.248215
	22.360000	0.300835
	22.365000	0.330433
	22.370000	0.281102
	22.375000	0.251504
	22.380000	0.297546
	22.385000	0.327145
	22.390000	0.284391
	22.395000	0.248215
	22.400000	0.297546
	22.405000	0.333722
	22.410000	0.281102
	22.415000	0.251504
	22.420000	0.294257
	22.425000	0.333722
	22.430000	0.281102
	22.435000	0.251504
	22.440000	0.297546
	22.445000	0.330433
	22.450000	0.284391
	22.455000	0.251504
	22.460000	0.300835
	22.465000	0.330433
	22.470000	0.281102
	22.475000	0.258081
	22.480000	0.300835
	22.485000	0.330433
	22.490000	0.281102
	22.495000	0.254793
	22.500000	0.304124
	22.505000	0.333722
	22.510000	0.287680
	22.515000	0.258081
	22.520000	0.300835
	22.525000	0.333722
	22.530000	0.281102
	22.535000	0.258081
	22.540000	0.304124
	22.545000	0.337011
	22.550000	0.287680
	22.555000	0.251504
	22.560000	0.304124
	22.565000	0.333722
	22.570000	0.284391
	22.575000	0.254793
	22.580000	0.300835
	22.585000	0.337011
	22.590000	0.287680
	22.595000	0.254793
	22.600000	0.297546
	22.605000	0.337011
	22.610000	0.281102
	22.615000	0.254793
	22.620000	0.300835
	22.625000	0.333722
	22.630000	0.287680
	22.635000	0.251504
	22.640000	0.300835
	22.645000	0.337011
	22.650000	0.287680
	22.655000	0.251504
	22.660000	0.297546
	22.665000	0.337011
	22.670000	0.284391
	22.675000	0.251504
	22.680000	0.300835
	22.685000	0.330433
	22.690000	0.284391
	22.695000	0.254793
	22.700000	0.304124
	22.705000	0.333722
	22.710000	0.287680
	22.715000	0.251504
	22.720000	0.300835
	22.725000	0.330433
	22.730000	0.287680
	22.735000	0.254793
	22.740000	0.300835
	22.745000	0.333722
	22.750000	0.284391
	22.755000	0.254793
	22.760000	0.297546
	22.765000	0.333722
	22.770000	0.284391
	22.775000	0.251504
	22.780000	0.300835
	22.785000	0.330433
	22.790000	0.284391
	22.795000	0.254793
	22.800000	0.297546
	22.805000	0.337011
	22.810000	0.284391
	22.815000	0.254793
	22.820000	0.300835
	22.825000	0.330433
	22.830000	0.277814
	22.835000	0.254793
	22.840000	0.304124
	22.845000	0.333722
	22.850000	0.281102
	22.855000	0.251504
	22.860000	0.300835
	22.865000	0.333722
	22.870000	0.287680
	22.875000	0.244927
	22.880000	0.297546
	22.885000	0.330433
	22.890000	0.287680
	22.895000	0.248215
	22.900000	0.300835
	22.905000	0.333722
	22.910000	0.287680
	22.915000	0.248215
	22.920000	0.300835
	22.925000	0.333722
	22.930000	0.290969
	22.935000	0.258081
	22.940000	0.300835
	22.945000	0.333722
	22.950000	0.290969
	22.955000	0.258081
	22.960000	0.300835
	22.965000	0.337011
	22.970000	0.287680
	22.975000	0.251504
	22.980000	0.300835
	22.985000	0.337011
	22.990000	0.290969
	22.995000	0.258081
	23.000000	0.300835
	23.005000	0.333722
	23.010000	0.287680
	23.015000	0.254793
	23.020000	0.297546
	23.025000	0.330433
	23.030000	0.290969
	23.035000	0.251504
	23.040000	0.304124
	23.045000	0.337011
	23.050000	0.284391
	23.055000	0.254793
	23.060000	0.300835
	23.065000	0.333722
	23.070000	0.284391
	23.075000	0.251504
	23.080000	0.304124
	23.085000	0.330433
	23.090000	0.287680
	23.095000	0.258081
	23.100000	0.304124
	23.105000	0.340299
	23.110000	0.284391
	23.115000	0.251504
	23.120000	0.297546
	23.125000	0.337011
	23.130000	0.287680
	23.135000	0.254793
	23.140000	0.297546
	23.145000	0.337011
	23.150000	0.287680
	23.155000	0.254793
	23.160000	0.304124
	23.165000	0.337011
	23.170000	0.281102
	23.175000	0.254793
	23.180000	0.297546
	23.185000	0.340299
	23.190000	0.290969
	23.195000	0.251504
	23.200000	0.300835
	23.205000	0.333722
	23.210000	0.287680
	23.215000	0.251504
	23.220000	0.300835
	23.225000	0.330433
	23.230000	0.287680
	23.235000	0.258081
	23.240000	0.300835
	23.245000	0.337011
	23.250000	0.290969
	23.255000	0.254793
	23.260000	0.300835
	23.265000	0.333722
	23.270000	0.287680
	23.275000	0.254793
	23.280000	0.297546
	23.285000	0.337011
	23.290000	0.290969
	23.295000	0.254793
	23.300000	0.304124
	23.305000	0.337011
	23.310000	0.290969
	23.315000	0.251504
	23.320000	0.300835
	23.325000	0.340299
	23.330000	0.290969
	23.335000	0.251504
	23.340000	0.304124
	23.345000	0.340299
	23.350000	0.287680
	23.355000	0.258081
	23.360000	0.304124
	23.365000	0.337011
	23.370000	0.287680
	23.375000	0.251504
	23.380000	0.307412
	23.385000	0.333722
	23.390000	0.287680
	23.395000	0.258081
	23.400000	0.304124
	23.405000	0.340299
	23.410000	0.290969
	23.415000	0.258081
	23.420000	0.304124
	23.425000	0.340299
	23.430000	0.290969
	23.435000	0.254793
	23.440000	0.307412
	23.445000	0.333722
	23.450000	0.290969
	23.455000	0.254793
	23.460000	0.304124
	23.465000	0.340299
	23.470000	0.290969
	23.475000	0.258081
	23.480000	0.307412
	23.485000	0.340299
	23.490000	0.294257
	23.495000	0.258081
	23.500000	0.310701
	23.505000	0.340299
	23.510000	0.290969
	23.515000	0.258081
	23.520000	0.307412
	23.525000	0.340299
	23.530000	0.290969
	23.535000	0.254793
	23.540000	0.300835
	23.545000	0.340299
	23.550000	0.294257
	23.555000	0.254793
	23.560000	0.304124
	23.565000	0.340299
	23.570000	0.290969
	23.575000	0.258081
	23.580000	0.297546
	23.585000	0.340299
	23.590000	0.290969
	23.595000	0.261370
	23.600000	0.304124
	23.605000	0.340299
	23.610000	0.290969
	23.615000	0.258081
	23.620000	0.304124
	23.625000	0.337011
	23.630000	0.290969
	23.635000	0.261370
	23.640000	0.300835
	23.645000	0.340299
	23.650000	0.287680
	23.655000	0.258081
	23.660000	0.304124
	23.665000	0.343588
	23.670000	0.287680
	23.675000	0.258081
	23.680000	0.304124
	23.685000	0.337011
	23.690000	0.287680
	23.695000	0.261370
	23.700000	0.300835
	23.705000	0.340299
	23.710000	0.294257
	23.715000	0.261370
	23.720000	0.300835
	23.725000	0.340299
	23.730000	0.290969
	23.735000	0.254793
	23.740000	0.304124
	23.745000	0.340299
	23.750000	0.294257
	23.755000	0.258081
	23.760000	0.300835
	23.765000	0.337011
	23.770000	0.290969
	23.775000	0.258081
	23.780000	0.300835
	23.785000	0.337011
	23.790000	0.294257
	23.795000	0.261370
	23.800000	0.304124
	23.805000	0.340299
	23.810000	0.290969
	23.815000	0.258081
	23.820000	0.304124
	23.825000	0.343588
	23.830000	0.287680
	23.835000	0.258081
	23.840000	0.300835
	23.845000	0.340299
	23.850000	0.290969
	23.855000	0.254793
	23.860000	0.300835
	23.865000	0.337011
	23.870000	0.294257
	23.875000	0.254793
	23.880000	0.300835
	23.885000	0.337011
	23.890000	0.290969
	23.895000	0.261370
	23.900000	0.307412
	23.905000	0.343588
	23.910000	0.297546
	23.915000	0.261370
	23.920000	0.307412
	23.925000	0.340299
	23.930000	0.294257
	23.935000	0.258081
	23.940000	0.304124
	23.945000	0.337011
	23.950000	0.294257
	23.955000	0.251504
	23.960000	0.304124
	23.965000	0.343588
	23.970000	0.297546
	23.975000	0.258081
	23.980000	0.300835
	23.985000	0.340299
	23.990000	0.294257
	23.995000	0.258081
	24.000000	0.297546
	24.005000	0.337011
	24.010000	0.294257
	24.015000	0.261370
	24.020000	0.304124
	24.025000	0.340299
	24.030000	0.294257
	24.035000	0.254793
	24.040000	0.304124
	24.045000	0.343588
	24.050000	0.290969
	24.055000	0.258081
	24.060000	0.297546
	24.065000	0.337011
	24.070000	0.287680
	24.075000	0.254793
	24.080000	0.297546
	24.085000	0.337011
	24.090000	0.290969
	24.095000	0.254793
	24.100000	0.304124
	24.105000	0.337011
	24.110000	0.287680
	24.115000	0.258081
	24.120000	0.300835
	24.125000	0.343588
	24.130000	0.304124
	24.135000	0.267948
	24.140000	0.313990
	24.145000	0.356743
	24.150000	0.313990
	24.155000	0.274525
	24.160000	0.323856
	24.165000	0.360032
	24.170000	0.317278
	24.175000	0.284391
	24.180000	0.327145
	24.185000	0.373187
	24.190000	0.327145
	24.195000	0.294257
	24.200000	0.337011
	24.205000	0.379764
	24.210000	0.337011
	24.215000	0.300835
	24.220000	0.343588
	24.225000	0.379764
	24.230000	0.340299
	24.235000	0.304124
	24.240000	0.353454
	24.245000	0.386342
	24.250000	0.346877
	24.255000	0.313990
	24.260000	0.360032
	24.265000	0.396208
	24.270000	0.356743
	24.275000	0.327145
	24.280000	0.366609
	24.285000	0.406074
	24.290000	0.369898
	24.295000	0.340299
	24.300000	0.379764
	24.305000	0.419229
	24.310000	0.376475
	24.315000	0.346877
	24.320000	0.389630
	24.325000	0.429095
	24.330000	0.379764
	24.335000	0.353454
	24.340000	0.386342
	24.345000	0.425806
	24.350000	0.386342
	24.355000	0.356743
	24.360000	0.392919
	24.365000	0.429095
	24.370000	0.389630
	24.375000	0.363321
	24.380000	0.392919
	24.385000	0.432384
	24.390000	0.389630
	24.395000	0.356743
	24.400000	0.392919
	24.405000	0.432384
	24.410000	0.392919
	24.415000	0.356743
	24.420000	0.392919
	24.425000	0.432384
	24.430000	0.392919
	24.435000	0.360032
	24.440000	0.396208
	24.445000	0.432384
	24.450000	0.392919
	24.455000	0.356743
	24.460000	0.396208
	24.465000	0.432384
	24.470000	0.386342
	24.475000	0.356743
	24.480000	0.396208
	24.485000	0.429095
	24.490000	0.389630
	24.495000	0.350166
	24.500000	0.392919
	24.505000	0.422518
	24.510000	0.386342
	24.515000	0.353454
	24.520000	0.392919
	24.525000	0.415940
	24.530000	0.383053
	24.535000	0.350166
	24.540000	0.383053
	24.545000	0.412651
	24.550000	0.376475
	24.555000	0.343588
	24.560000	0.383053
	24.565000	0.412651
	24.570000	0.369898
	24.575000	0.340299
	24.580000	0.373187
	24.585000	0.412651
	24.590000	0.363321
	24.595000	0.337011
	24.600000	0.366609
	24.605000	0.406074
	24.610000	0.363321
	24.615000	0.327145
	24.620000	0.363321
	24.625000	0.396208
	24.630000	0.350166
	24.635000	0.320567
	24.640000	0.360032
	24.645000	0.386342
	24.650000	0.343588
	24.655000	0.310701
	24.660000	0.350166
	24.665000	0.379764
	24.670000	0.340299
	24.675000	0.300835
	24.680000	0.340299
	24.685000	0.376475
	24.690000	0.330433
	24.695000	0.294257
	24.700000	0.333722
	24.705000	0.366609
	24.710000	0.320567
	24.715000	0.287680
	24.720000	0.320567
	24.725000	0.356743
	24.730000	0.307412
	24.735000	0.277814
	24.740000	0.313990
	24.745000	0.346877
	24.750000	0.304124
	24.755000	0.271236
	24.760000	0.310701
	24.765000	0.346877
	24.770000	0.297546
	24.775000	0.264659
	24.780000	0.304124
	24.785000	0.337011
	24.790000	0.294257
	24.795000	0.261370
	24.800000	0.300835
	24.805000	0.337011
	24.810000	0.287680
	24.815000	0.251504
	24.820000	0.300835
	24.825000	0.333722
	24.830000	0.287680
	24.835000	0.251504
	24.840000	0.294257
	24.845000	0.333722
	24.850000	0.287680
	24.855000	0.248215
	24.860000	0.287680
	24.865000	0.333722
	24.870000	0.284391
	24.875000	0.241638
	24.880000	0.290969
	24.885000	0.323856
	24.890000	0.281102
	24.895000	0.241638
	24.900000	0.287680
	24.905000	0.327145
	24.910000	0.277814
	24.915000	0.238349
	24.920000	0.287680
	24.925000	0.330433
	24.930000	0.284391
	24.935000	0.244927
	24.940000	0.287680
	24.945000	0.327145
	24.950000	0.281102
	24.955000	0.244927
	24.960000	0.294257
	24.965000	0.327145
	24.970000	0.281102
	24.975000	0.248215
	24.980000	0.290969
	24.985000	0.330433
	24.990000	0.287680
	24.995000	0.248215
	25.000000	0.290969
	25.005000	0.330433
	25.010000	0.287680
	25.015000	0.244927
	25.020000	0.290969
	25.025000	0.330433
	25.030000	0.287680
	25.035000	0.248215
	25.040000	0.290969
	25.045000	0.337011
	25.050000	0.284391
	25.055000	0.248215
	25.060000	0.294257
	25.065000	0.330433
	25.070000	0.287680
	25.075000	0.244927
	25.080000	0.290969
	25.085000	0.330433
	25.090000	0.281102
	25.095000	0.248215
	25.100000	0.290969
	25.105000	0.333722
	25.110000	0.287680
	25.115000	0.248215
	25.120000	0.290969
	25.125000	0.333722
	25.130000	0.287680
	25.135000	0.248215
	25.140000	0.294257
	25.145000	0.333722
	25.150000	0.287680
	25.155000	0.244927
	25.160000	0.294257
	25.165000	0.330433
	25.170000	0.294257
	25.175000	0.248215
	25.180000	0.294257
	25.185000	0.333722
	25.190000	0.287680
	25.195000	0.248215
	25.200000	0.294257
	25.205000	0.330433
	25.210000	0.290969
	25.215000	0.254793
	25.220000	0.294257
	25.225000	0.337011
	25.230000	0.294257
	25.235000	0.254793
	25.240000	0.297546
	25.245000	0.333722
	25.250000	0.290969
	25.255000	0.254793
	25.260000	0.300835
	25.265000	0.337011
	25.270000	0.287680
	25.275000	0.254793
	25.280000	0.290969
	25.285000	0.337011
	25.290000	0.297546
	25.295000	0.254793
	25.300000	0.297546
	25.305000	0.337011
	25.310000	0.290969
	25.315000	0.251504
	25.320000	0.297546
	25.325000	0.337011
	25.330000	0.290969
	25.335000	0.254793
	25.340000	0.297546
	25.345000	0.340299
	25.350000	0.294257
	25.355000	0.258081
	25.360000	0.300835
	25.365000	0.337011
	25.370000	0.300835
	25.375000	0.254793
	25.380000	0.300835
	25.385000	0.340299
	25.390000	0.294257
	25.395000	0.254793
	25.400000	0.300835
	25.405000	0.340299
	25.410000	0.300835
	25.415000	0.254793
	25.420000	0.307412
	25.425000	0.340299
	25.430000	0.297546
	25.435000	0.254793
	25.440000	0.300835
	25.445000	0.343588
	25.450000	0.294257
	25.455000	0.258081
	25.460000	0.304124
	25.465000	0.343588
	25.470000	0.290969
	25.475000	0.258081
	25.480000	0.297546
	25.485000	0.340299
	25.490000	0.297546
	25.495000	0.258081
	25.500000	0.304124
	25.505000	0.340299
	25.510000	0.300835
	25.515000	0.258081
	25.520000	0.300835
	25.525000	0.343588
	25.530000	0.297546
	25.535000	0.264659
	25.540000	0.304124
	25.545000	0.343588
	25.550000	0.297546
	25.555000	0.264659
	25.560000	0.307412
	25.565000	0.343588
	25.570000	0.297546
	25.575000	0.261370
	25.580000	0.304124
	25.585000	0.346877
	25.590000	0.300835
	25.595000	0.264659
	25.600000	0.304124
	25.605000	0.343588
	25.610000	0.300835
	25.615000	0.267948
	25.620000	0.304124
	25.625000	0.343588
	25.630000	0.300835
	25.635000	0.264659
	25.640000	0.300835
	25.645000	0.350166
	25.650000	0.300835
	25.655000	0.264659
	25.660000	0.307412
	25.665000	0.343588
	25.670000	0.300835
	25.675000	0.258081
	25.680000	0.304124
	25.685000	0.346877
	25.690000	0.304124
	25.695000	0.264659
	25.700000	0.304124
	25.705000	0.346877
	25.710000	0.300835
	25.715000	0.261370
	25.720000	0.307412
	25.725000	0.346877
	25.730000	0.300835
	25.735000	0.258081
	25.740000	0.304124
	25.745000	0.346877
	25.750000	0.300835
	25.755000	0.264659
	25.760000	0.307412
	25.765000	0.343588
	25.770000	0.304124
	25.775000	0.267948
	25.780000	0.307412
	25.785000	0.346877
	25.790000	0.300835
	25.795000	0.261370
	25.800000	0.307412
	25.805000	0.346877
	25.810000	0.307412
	25.815000	0.258081
	25.820000	0.300835
	25.825000	0.350166
	25.830000	0.304124
	25.835000	0.267948
	25.840000	0.304124
	25.845000	0.346877
	25.850000	0.304124
	25.855000	0.264659
	25.860000	0.304124
	25.865000	0.346877
	25.870000	0.304124
	25.875000	0.264659
	25.880000	0.310701
	25.885000	0.346877
	25.890000	0.304124
	25.895000	0.267948
	25.900000	0.307412
	25.905000	0.346877
	25.910000	0.307412
	25.915000	0.264659
	25.920000	0.310701
	25.925000	0.346877
	25.930000	0.307412
	25.935000	0.267948
	25.940000	0.307412
	25.945000	0.350166
	25.950000	0.300835
	25.955000	0.267948
	25.960000	0.304124
	25.965000	0.350166
	25.970000	0.307412
	25.975000	0.267948
	25.980000	0.310701
	25.985000	0.346877
	25.990000	0.304124
	25.995000	0.261370
	26.000000	0.310701
	26.005000	0.353454
	26.010000	0.307412
	26.015000	0.264659
	26.020000	0.307412
	26.025000	0.353454
	26.030000	0.304124
	26.035000	0.264659
	26.040000	0.310701
	26.045000	0.350166
	26.050000	0.307412
	26.055000	0.264659
	26.060000	0.310701
	26.065000	0.350166
	26.070000	0.307412
	26.075000	0.264659
	26.080000	0.310701
	26.085000	0.353454
	26.090000	0.307412
	26.095000	0.264659
	26.100000	0.307412
	26.105000	0.350166
	26.110000	0.307412
	26.115000	0.271236
	26.120000	0.313990
	26.125000	0.353454
	26.130000	0.307412
	26.135000	0.271236
	26.140000	0.307412
	26.145000	0.350166
	26.150000	0.307412
	26.155000	0.267948
	26.160000	0.313990
	26.165000	0.353454
	26.170000	0.310701
	26.175000	0.264659
	26.180000	0.313990
	26.185000	0.353454
	26.190000	0.307412
	26.195000	0.267948
	26.200000	0.310701
	26.205000	0.350166
	26.210000	0.310701
	26.215000	0.264659
	26.220000	0.317278
	26.225000	0.353454
	26.230000	0.304124
	26.235000	0.274525
	26.240000	0.317278
	26.245000	0.356743
	26.250000	0.310701
	26.255000	0.264659
	26.260000	0.307412
	26.265000	0.350166
	26.270000	0.307412
	26.275000	0.267948
	26.280000	0.310701
	26.285000	0.350166
	26.290000	0.313990
	26.295000	0.267948
	26.300000	0.313990
	26.305000	0.353454
	26.310000	0.313990
	26.315000	0.267948
	26.320000	0.310701
	26.325000	0.356743
	26.330000	0.310701
	26.335000	0.267948
	26.340000	0.310701
	26.345000	0.353454
	26.350000	0.310701
	26.355000	0.267948
	26.360000	0.313990
	26.365000	0.356743
	26.370000	0.310701
	26.375000	0.274525
	26.380000	0.313990
	26.385000	0.353454
	26.390000	0.307412
	26.395000	0.271236
	26.400000	0.313990
	26.405000	0.353454
	26.410000	0.307412
	26.415000	0.274525
	26.420000	0.310701
	26.425000	0.356743
	26.430000	0.310701
	26.435000	0.267948
	26.440000	0.313990
	26.445000	0.353454
	26.450000	0.310701
	26.455000	0.274525
	26.460000	0.310701
	26.465000	0.356743
	26.470000	0.310701
	26.475000	0.271236
	26.480000	0.313990
	26.485000	0.356743
	26.490000	0.310701
	26.495000	0.274525
	26.500000	0.317278
	26.505000	0.353454
	26.510000	0.313990
	26.515000	0.274525
	26.520000	0.317278
	26.525000	0.350166
	26.530000	0.307412
	26.535000	0.271236
	26.540000	0.313990
	26.545000	0.353454
	26.550000	0.310701
	26.555000	0.274525
	26.560000	0.313990
	26.565000	0.356743
	26.570000	0.310701
	26.575000	0.274525
	26.580000	0.317278
	26.585000	0.353454
	26.590000	0.310701
	26.595000	0.274525
	26.600000	0.313990
	26.605000	0.356743
	26.610000	0.310701
	26.615000	0.274525
	26.620000	0.313990
	26.625000	0.353454
	26.630000	0.313990
	26.635000	0.267948
	26.640000	0.313990
	26.645000	0.353454
	26.650000	0.310701
	26.655000	0.271236
	26.660000	0.317278
	26.665000	0.353454
	26.670000	0.307412
	26.675000	0.271236
	26.680000	0.317278
	26.685000	0.356743
	26.690000	0.307412
	26.695000	0.264659
	26.700000	0.317278
	26.705000	0.350166
	26.710000	0.317278
	26.715000	0.274525
	26.720000	0.313990
	26.725000	0.356743
	26.730000	0.310701
	26.735000	0.274525
	26.740000	0.313990
	26.745000	0.353454
	26.750000	0.313990
	26.755000	0.271236
	26.760000	0.313990
	26.765000	0.356743
	26.770000	0.307412
	26.775000	0.267948
	26.780000	0.313990
	26.785000	0.356743
	26.790000	0.310701
	26.795000	0.271236
	26.800000	0.313990
	26.805000	0.350166
	26.810000	0.310701
	26.815000	0.267948
	26.820000	0.310701
	26.825000	0.356743
	26.830000	0.310701
	26.835000	0.274525
	26.840000	0.310701
	26.845000	0.353454
	26.850000	0.310701
	26.855000	0.274525
	26.860000	0.317278
	26.865000	0.356743
	26.870000	0.307412
	26.875000	0.274525
	26.880000	0.317278
	26.885000	0.356743
	26.890000	0.313990
	26.895000	0.274525
	26.900000	0.317278
	26.905000	0.356743
	26.910000	0.313990
	26.915000	0.277814
	26.920000	0.313990
	26.925000	0.353454
	26.930000	0.310701
	26.935000	0.271236
	26.940000	0.313990
	26.945000	0.356743
	26.950000	0.310701
	26.955000	0.274525
	26.960000	0.317278
	26.965000	0.360032
	26.970000	0.307412
	26.975000	0.271236
	26.980000	0.317278
	26.985000	0.353454
	26.990000	0.313990
	26.995000	0.267948
	27.000000	0.313990
	27.005000	0.356743
	27.010000	0.313990
	27.015000	0.277814
	27.020000	0.320567
	27.025000	0.360032
	27.030000	0.307412
	27.035000	0.274525
	27.040000	0.317278
	27.045000	0.353454
	27.050000	0.313990
	27.055000	0.274525
	27.060000	0.310701
	27.065000	0.353454
	27.070000	0.310701
	27.075000	0.274525
	27.080000	0.313990
	27.085000	0.356743
	27.090000	0.310701
	27.095000	0.274525
	27.100000	0.317278
	27.105000	0.356743
	27.110000	0.317278
	27.115000	0.271236
	27.120000	0.317278
	27.125000	0.356743
	27.130000	0.310701
	27.135000	0.274525
	27.140000	0.320567
	27.145000	0.360032
	27.150000	0.310701
	27.155000	0.277814
	27.160000	0.320567
	27.165000	0.360032
	27.170000	0.313990
	27.175000	0.274525
	27.180000	0.320567
	27.185000	0.360032
	27.190000	0.313990
	27.195000	0.274525
	27.200000	0.320567
	27.205000	0.356743
	27.210000	0.313990
	27.215000	0.274525
	27.220000	0.313990
	27.225000	0.350166
	27.230000	0.313990
	27.235000	0.274525
	27.240000	0.320567
	27.245000	0.356743
	27.250000	0.317278
	27.255000	0.274525
	27.260000	0.317278
	27.265000	0.360032
	27.270000	0.313990
	27.275000	0.274525
	27.280000	0.317278
	27.285000	0.356743
	27.290000	0.317278
	27.295000	0.277814
	27.300000	0.313990
	27.305000	0.356743
	27.310000	0.317278
	27.315000	0.274525
	27.320000	0.320567
	27.325000	0.356743
	27.330000	0.313990
	27.335000	0.274525
	27.340000	0.320567
	27.345000	0.356743
	27.350000	0.317278
	27.355000	0.274525
	27.360000	0.320567
	27.365000	0.353454
	27.370000	0.310701
	27.375000	0.274525
	27.380000	0.320567
	27.385000	0.360032
	27.390000	0.317278
	27.395000	0.274525
	27.400000	0.313990
	27.405000	0.353454
	27.410000	0.317278
	27.415000	0.274525
	27.420000	0.313990
	27.425000	0.360032
	27.430000	0.310701
	27.435000	0.274525
	27.440000	0.320567
	27.445000	0.356743
	27.450000	0.310701
	27.455000	0.277814
	27.460000	0.317278
	27.465000	0.356743
	27.470000	0.313990
	27.475000	0.274525
	27.480000	0.313990
	27.485000	0.356743
	27.490000	0.310701
	27.495000	0.274525
	27.500000	0.317278
	27.505000	0.356743
	27.510000	0.310701
	27.515000	0.271236
	27.520000	0.317278
	27.525000	0.353454
	27.530000	0.310701
	27.535000	0.274525
	27.540000	0.320567
	27.545000	0.353454
	27.550000	0.310701
	27.555000	0.274525
	27.560000	0.317278
	27.565000	0.353454
	27.570000	0.310701
	27.575000	0.277814
	27.580000	0.317278
	27.585000	0.353454
	27.590000	0.313990
	27.595000	0.267948
	27.600000	0.317278
	27.605000	0.356743
	27.610000	0.317278
	27.615000	0.274525
	27.620000	0.317278
	27.625000	0.360032
	27.630000	0.304124
	27.635000	0.267948
	27.640000	0.310701
	27.645000	0.353454
	27.650000	0.313990
	27.655000	0.271236
	27.660000	0.317278
	27.665000	0.360032
	27.670000	0.304124
	27.675000	0.274525
	27.680000	0.313990
	27.685000	0.353454
	27.690000	0.307412
	27.695000	0.274525
	27.700000	0.313990
	27.705000	0.353454
	27.710000	0.307412
	27.715000	0.274525
	27.720000	0.313990
	27.725000	0.353454
	27.730000	0.310701
	27.735000	0.271236
	27.740000	0.313990
	27.745000	0.353454
	27.750000	0.310701
	27.755000	0.267948
	27.760000	0.310701
	27.765000	0.356743
	27.770000	0.304124
	27.775000	0.274525
	27.780000	0.313990
	27.785000	0.353454
	27.790000	0.304124
	27.795000	0.271236
	27.800000	0.310701
	27.805000	0.350166
	27.810000	0.307412
	27.815000	0.267948
	27.820000	0.310701
	27.825000	0.350166
	27.830000	0.307412
	27.835000	0.264659
	27.840000	0.310701
	27.845000	0.350166
	27.850000	0.304124
	27.855000	0.264659
	27.860000	0.313990
	27.865000	0.350166
	27.870000	0.304124
	27.875000	0.267948
	27.880000	0.310701
	27.885000	0.350166
	27.890000	0.304124
	27.895000	0.264659
	27.900000	0.310701
	27.905000	0.346877
	27.910000	0.307412
	27.915000	0.264659
	27.920000	0.307412
	27.925000	0.350166
	27.930000	0.300835
	27.935000	0.264659
	27.940000	0.307412
	27.945000	0.346877
	27.950000	0.307412
	27.955000	0.264659
	27.960000	0.310701
	27.965000	0.346877
	27.970000	0.307412
	27.975000	0.267948
	27.980000	0.307412
	27.985000	0.346877
	27.990000	0.304124
	27.995000	0.267948
	28.000000	0.313990
	28.005000	0.346877
	28.010000	0.300835
	28.015000	0.267948
	28.020000	0.313990
	28.025000	0.346877
	28.030000	0.300835
	28.035000	0.267948
	28.040000	0.310701
	28.045000	0.350166
	28.050000	0.300835
	28.055000	0.267948
	28.060000	0.307412
	28.065000	0.353454
	28.070000	0.307412
	28.075000	0.264659
	28.080000	0.307412
	28.085000	0.343588
	28.090000	0.300835
	28.095000	0.261370
	28.100000	0.307412
	28.105000	0.346877
	28.110000	0.300835
	28.115000	0.264659
	28.120000	0.307412
	28.125000	0.346877
	28.130000	0.307412
	28.135000	0.261370
	28.140000	0.310701
	28.145000	0.346877
	28.150000	0.300835
	28.155000	0.264659
	28.160000	0.307412
	28.165000	0.350166
	28.170000	0.300835
	28.175000	0.261370
	28.180000	0.310701
	28.185000	0.346877
	28.190000	0.300835
	28.195000	0.261370
	28.200000	0.310701
	28.205000	0.346877
	28.210000	0.307412
	28.215000	0.261370
	28.220000	0.307412
	28.225000	0.346877
	28.230000	0.304124
	28.235000	0.264659
	28.240000	0.304124
	28.245000	0.346877
	28.250000	0.304124
	28.255000	0.264659
	28.260000	0.310701
	28.265000	0.346877
	28.270000	0.304124
	28.275000	0.261370
	28.280000	0.307412
	28.285000	0.343588
	28.290000	0.300835
	28.295000	0.264659
	28.300000	0.310701
	28.305000	0.343588
	28.310000	0.307412
	28.315000	0.271236
	28.320000	0.310701
	28.325000	0.346877
	28.330000	0.304124
	28.335000	0.264659
	28.340000	0.310701
	28.345000	0.346877
	28.350000	0.304124
	28.355000	0.264659
	28.360000	0.310701
	28.365000	0.353454
	28.370000	0.300835
	28.375000	0.264659
	28.380000	0.310701
	28.385000	0.346877
	28.390000	0.304124
	28.395000	0.264659
	28.400000	0.317278
	28.405000	0.350166
	28.410000	0.300835
	28.415000	0.264659
	28.420000	0.307412
	28.425000	0.350166
	28.430000	0.304124
	28.435000	0.264659
	28.440000	0.310701
	28.445000	0.346877
	28.450000	0.300835
	28.455000	0.264659
	28.460000	0.313990
	28.465000	0.350166
	28.470000	0.304124
	28.475000	0.264659
	28.480000	0.310701
	28.485000	0.346877
	28.490000	0.304124
	28.495000	0.264659
	28.500000	0.313990
	28.505000	0.350166
	28.510000	0.304124
	28.515000	0.261370
	28.520000	0.310701
	28.525000	0.346877
	28.530000	0.300835
	28.535000	0.267948
	28.540000	0.310701
	28.545000	0.350166
	28.550000	0.304124
	28.555000	0.264659
	28.560000	0.310701
	28.565000	0.346877
	28.570000	0.300835
	28.575000	0.267948
	28.580000	0.310701
	28.585000	0.350166
	28.590000	0.300835
	28.595000	0.267948
	28.600000	0.310701
	28.605000	0.346877
	28.610000	0.307412
	28.615000	0.267948
	28.620000	0.307412
	28.625000	0.350166
	28.630000	0.304124
	28.635000	0.267948
	28.640000	0.307412
	28.645000	0.346877
	28.650000	0.304124
	28.655000	0.267948
	28.660000	0.307412
	28.665000	0.346877
	28.670000	0.304124
	28.675000	0.267948
	28.680000	0.313990
	28.685000	0.346877
	28.690000	0.304124
	28.695000	0.261370
	28.700000	0.313990
	28.705000	0.350166
	28.710000	0.304124
	28.715000	0.274525
	28.720000	0.310701
	28.725000	0.350166
	28.730000	0.304124
	28.735000	0.271236
	28.740000	0.310701
	28.745000	0.350166
	28.750000	0.304124
	28.755000	0.267948
	28.760000	0.313990
	28.765000	0.350166
	28.770000	0.304124
	28.775000	0.267948
	28.780000	0.313990
	28.785000	0.353454
	28.790000	0.304124
	28.795000	0.267948
	28.800000	0.310701
	28.805000	0.350166
	28.810000	0.307412
	28.815000	0.267948
	28.820000	0.310701
	28.825000	0.350166
	28.830000	0.307412
	28.835000	0.264659
	28.840000	0.310701
	28.845000	0.346877
	28.850000	0.304124
	28.855000	0.264659
	28.860000	0.313990
	28.865000	0.350166
	28.870000	0.307412
	28.875000	0.271236
	28.880000	0.313990
	28.885000	0.353454
	28.890000	0.307412
	28.895000	0.271236
	28.900000	0.317278
	28.905000	0.356743
	28.910000	0.317278
	28.915000	0.281102
	28.920000	0.330433
	28.925000	0.369898
	28.930000	0.320567
	28.935000	0.290969
	28.940000	0.340299
	28.945000	0.379764
	28.950000	0.330433
	28.955000	0.300835
	28.960000	0.346877
	28.965000	0.383053
	28.970000	0.340299
	28.975000	0.310701
	28.980000	0.346877
	28.985000	0.386342
	28.990000	0.353454
	28.995000	0.313990
	29.000000	0.360032
	29.005000	0.399496
	29.010000	0.353454
	29.015000	0.323856
	29.020000	0.363321
	29.025000	0.402785
	29.030000	0.363321
	29.035000	0.337011
	29.040000	0.376475
	29.045000	0.415940
	29.050000	0.379764
	29.055000	0.346877
	29.060000	0.392919
	29.065000	0.429095
	29.070000	0.383053
	29.075000	0.353454
	29.080000	0.396208
	29.085000	0.429095
	29.090000	0.389630
	29.095000	0.353454
	29.100000	0.399496
	29.105000	0.432384
	29.110000	0.389630
	29.115000	0.356743
	29.120000	0.399496
	29.125000	0.432384
	29.130000	0.396208
	29.135000	0.360032
	29.140000	0.396208
	29.145000	0.432384
	29.150000	0.396208
	29.155000	0.356743
	29.160000	0.399496
	29.165000	0.432384
	29.170000	0.392919
	29.175000	0.363321
	29.180000	0.402785
	29.185000	0.432384
	29.190000	0.389630
	29.195000	0.356743
	29.200000	0.396208
	29.205000	0.432384
	29.210000	0.392919
	29.215000	0.360032
	29.220000	0.396208
	29.225000	0.429095
	29.230000	0.392919
	29.235000	0.356743
	29.240000	0.396208
	29.245000	0.432384
	29.250000	0.389630
	29.255000	0.350166
	29.260000	0.392919
	29.265000	0.425806
	29.270000	0.383053
	29.275000	0.350166
	29.280000	0.389630
	29.285000	0.422518
	29.290000	0.379764
	29.295000	0.343588
	29.300000	0.383053
	29.305000	0.419229
	29.310000	0.376475
	29.315000	0.346877
	29.320000	0.386342
	29.325000	0.415940
	29.330000	0.373187
	29.335000	0.343588
	29.340000	0.379764
	29.345000	0.412651
	29.350000	0.369898
	29.355000	0.340299
	29.360000	0.376475
	29.365000	0.409363
	29.370000	0.366609
	29.375000	0.333722
	29.380000	0.373187
	29.385000	0.402785
	29.390000	0.363321
	29.395000	0.333722
	29.400000	0.366609
	29.405000	0.392919
	29.410000	0.353454
	29.415000	0.320567
	29.420000	0.360032
	29.425000	0.392919
	29.430000	0.350166
	29.435000	0.310701
	29.440000	0.356743
	29.445000	0.383053
	29.450000	0.343588
	29.455000	0.310701
	29.460000	0.346877
	29.465000	0.376475
	29.470000	0.333722
	29.475000	0.300835
	29.480000	0.337011
	29.485000	0.376475
	29.490000	0.330433
	29.495000	0.294257
	29.500000	0.337011
	29.505000	0.366609
	29.510000	0.317278
	29.515000	0.287680
	29.520000	0.327145
	29.525000	0.363321
	29.530000	0.313990
	29.535000	0.281102
	29.540000	0.323856
	29.545000	0.360032
	29.550000	0.307412
	29.555000	0.277814
	29.560000	0.320567
	29.565000	0.353454
	29.570000	0.313990
	29.575000	0.274525
	29.580000	0.313990
	29.585000	0.353454
	29.590000	0.304124
	29.595000	0.274525
	29.600000	0.313990
	29.605000	0.350166
	29.610000	0.304124
	29.615000	0.267948
	29.620000	0.310701
	29.625000	0.346877
	29.630000	0.304124
	29.635000	0.261370
	29.640000	0.307412
	29.645000	0.343588
	29.650000	0.297546
	29.655000	0.261370
	29.660000	0.307412
	29.665000	0.340299
	29.670000	0.294257
	29.675000	0.258081
	29.680000	0.310701
	29.685000	0.337011
	29.690000	0.290969
	29.695000	0.258081
	29.700000	0.297546
	29.705000	0.333722
	29.710000	0.290969
	29.715000	0.251504
	29.720000	0.297546
	29.725000	0.333722
	29.730000	0.290969
	29.735000	0.254793
	29.740000	0.304124
	29.745000	0.337011
	29.750000	0.297546
	29.755000	0.258081
	29.760000	0.307412
	29.765000	0.343588
	29.770000	0.294257
	29.775000	0.261370
	29.780000	0.300835
	29.785000	0.346877
	29.790000	0.300835
	29.795000	0.261370
	29.800000	0.313990
	29.805000	0.346877
	29.810000	0.297546
	29.815000	0.264659
	29.820000	0.310701
	29.825000	0.343588
	29.830000	0.300835
	29.835000	0.264659
	29.840000	0.313990
	29.845000	0.346877
	29.850000	0.297546
	29.855000	0.261370
	29.860000	0.307412
	29.865000	0.353454
	29.870000	0.304124
	29.875000	0.267948
	29.880000	0.317278
	29.885000	0.350166
	29.890000	0.304124
	29.895000	0.271236
	29.900000	0.317278
	29.905000	0.350166
	29.910000	0.307412
	29.915000	0.267948
	29.920000	0.313990
	29.925000	0.353454
	29.930000	0.304124
	29.935000	0.267948
	29.940000	0.313990
	29.945000	0.353454
	29.950000	0.304124
	29.955000	0.267948
	29.960000	0.310701
	29.965000	0.353454
	29.970000	0.307412
	29.975000	0.267948
	29.980000	0.317278
	29.985000	0.350166
	29.990000	0.307412
	29.995000	0.267948
	30.000000	0.317278
	30.005000	0.343588
	30.010000	0.307412
	30.015000	0.267948
	30.020000	0.313990
	30.025000	0.356743
	30.030000	0.304124
	30.035000	0.271236
	30.040000	0.310701
	30.045000	0.353454
	30.050000	0.307412
	30.055000	0.271236
	30.060000	0.317278
	30.065000	0.353454
	30.070000	0.307412
	30.075000	0.271236
	30.080000	0.317278
	30.085000	0.353454
	30.090000	0.307412
	30.095000	0.274525
	30.100000	0.323856
	30.105000	0.356743
	30.110000	0.304124
	30.115000	0.271236
	30.120000	0.317278
	30.125000	0.353454
	30.130000	0.310701
	30.135000	0.274525
	30.140000	0.320567
	30.145000	0.356743
	30.150000	0.310701
	30.155000	0.274525
	30.160000	0.323856
	30.165000	0.353454
	30.170000	0.307412
	30.175000	0.277814
	30.180000	0.320567
	30.185000	0.356743
	30.190000	0.307412
	30.195000	0.277814
	30.200000	0.320567
	30.205000	0.353454
	30.210000	0.307412
	30.215000	0.274525
	30.220000	0.320567
	30.225000	0.356743
	30.230000	0.304124
	30.235000	0.274525
	30.240000	0.320567
	30.245000	0.353454
	30.250000	0.310701
	30.255000	0.277814
	30.260000	0.320567
	30.265000	0.360032
	30.270000	0.310701
	30.275000	0.274525
	30.280000	0.323856
	30.285000	0.360032
	30.290000	0.313990
	30.295000	0.277814
	30.300000	0.323856
	30.305000	0.360032
	30.310000	0.310701
	30.315000	0.274525
	30.320000	0.320567
	30.325000	0.360032
	30.330000	0.310701
	30.335000	0.277814
	30.340000	0.320567
	30.345000	0.356743
	30.350000	0.307412
	30.355000	0.274525
	30.360000	0.320567
	30.365000	0.353454
	30.370000	0.310701
	30.375000	0.274525
	30.380000	0.320567
	30.385000	0.353454
	30.390000	0.307412
	30.395000	0.274525
	30.400000	0.320567
	30.405000	0.360032
	30.410000	0.310701
	30.415000	0.274525
	30.420000	0.323856
	30.425000	0.356743
	30.430000	0.310701
	30.435000	0.274525
	30.440000	0.320567
	30.445000	0.360032
	30.450000	0.307412
	30.455000	0.274525
	30.460000	0.317278
	30.465000	0.356743
	30.470000	0.307412
	30.475000	0.274525
	30.480000	0.320567
	30.485000	0.360032
	30.490000	0.313990
	30.495000	0.271236
	30.500000	0.320567
	30.505000	0.353454
	30.510000	0.307412
	30.515000	0.281102
	30.520000	0.323856
	30.525000	0.353454
	30.530000	0.310701
	30.535000	0.274525
	30.540000	0.320567
	30.545000	0.356743
	30.550000	0.310701
	30.555000	0.271236
	30.560000	0.323856
	30.565000	0.356743
	30.570000	0.304124
	30.575000	0.274525
	30.580000	0.323856
	30.585000	0.356743
	30.590000	0.307412
	30.595000	0.277814
	30.600000	0.317278
	30.605000	0.356743
	30.610000	0.307412
	30.615000	0.274525
	30.620000	0.320567
	30.625000	0.356743
	30.630000	0.310701
	30.635000	0.274525
	30.640000	0.320567
	30.645000	0.353454
	30.650000	0.307412
	30.655000	0.271236
	30.660000	0.320567
	30.665000	0.356743
	30.670000	0.307412
	30.675000	0.274525
	30.680000	0.323856
	30.685000	0.353454
	30.690000	0.307412
	30.695000	0.274525
	30.700000	0.320567
	30.705000	0.353454
	30.710000	0.307412
	30.715000	0.274525
	30.720000	0.320567
	30.725000	0.356743
	30.730000	0.304124
	30.735000	0.274525
	30.740000	0.320567
	30.745000	0.356743
	30.750000	0.307412
	30.755000	0.274525
	30.760000	0.320567
	30.765000	0.353454
	30.770000	0.310701
	30.775000	0.274525
	30.780000	0.323856
	30.785000	0.360032
	30.790000	0.307412
	30.795000	0.274525
	30.800000	0.320567
	30.805000	0.353454
	30.810000	0.304124
	30.815000	0.274525
	30.820000	0.320567
	30.825000	0.356743
	30.830000	0.307412
	30.835000	0.277814
	30.840000	0.323856
	30.845000	0.356743
	30.850000	0.304124
	30.855000	0.277814
	30.860000	0.323856
	30.865000	0.356743
	30.870000	0.307412
	30.875000	0.274525
	30.880000	0.320567
	30.885000	0.356743
	30.890000	0.310701
	30.895000	0.274525
	30.900000	0.330433
	30.905000	0.356743
	30.910000	0.310701
	30.915000	0.277814
	30.920000	0.323856
	30.925000	0.356743
	30.930000	0.307412
	30.935000	0.277814
	30.940000	0.323856
	30.945000	0.363321
	30.950000	0.310701
	30.955000	0.277814
	30.960000	0.323856
	30.965000	0.356743
	30.970000	0.313990
	30.975000	0.274525
	30.980000	0.323856
	30.985000	0.360032
	30.990000	0.313990
	30.995000	0.284391
	31.000000	0.323856
	31.005000	0.360032
	31.010000	0.310701
	31.015000	0.277814
	31.020000	0.327145
	31.025000	0.360032
	31.030000	0.307412
	31.035000	0.281102
	31.040000	0.323856
	31.045000	0.360032
	31.050000	0.313990
	31.055000	0.277814
	31.060000	0.323856
	31.065000	0.360032
	31.070000	0.310701
	31.075000	0.277814
	31.080000	0.323856
	31.085000	0.360032
	31.090000	0.313990
	31.095000	0.277814
	31.100000	0.327145
	31.105000	0.360032
	31.110000	0.317278
	31.115000	0.277814
	31.120000	0.327145
	31.125000	0.363321
	31.130000	0.310701
	31.135000	0.284391
	31.140000	0.327145
	31.145000	0.363321
	31.150000	0.317278
	31.155000	0.284391
	31.160000	0.327145
	31.165000	0.366609
	31.170000	0.317278
	31.175000	0.281102
	31.180000	0.330433
	31.185000	0.360032
	31.190000	0.313990
	31.195000	0.281102
	31.200000	0.327145
	31.205000	0.363321
	31.210000	0.317278
	31.215000	0.284391
	31.220000	0.327145
	31.225000	0.360032
	31.230000	0.317278
	31.235000	0.281102
	31.240000	0.327145
	31.245000	0.366609
	31.250000	0.317278
	31.255000	0.284391
	31.260000	0.327145
	31.265000	0.366609
	31.270000	0.313990
	31.275000	0.284391
	31.280000	0.330433
	31.285000	0.366609
	31.290000	0.313990
	31.295000	0.281102
	31.300000	0.327145
	31.305000	0.360032
	31.310000	0.310701
	31.315000	0.287680
	31.320000	0.330433
	31.325000	0.369898
	31.330000	0.317278
	31.335000	0.284391
	31.340000	0.327145
	31.345000	0.363321
	31.350000	0.317278
	31.355000	0.284391
	31.360000	0.333722
	31.365000	0.366609
	31.370000	0.313990
	31.375000	0.277814
	31.380000	0.333722
	31.385000	0.366609
	31.390000	0.313990
	31.395000	0.284391
	31.400000	0.327145
	31.405000	0.360032
	31.410000	0.313990
	31.415000	0.281102
	31.420000	0.330433
	31.425000	0.360032
	31.430000	0.317278
	31.435000	0.284391
	31.440000	0.330433
	31.445000	0.366609
	31.450000	0.310701
	31.455000	0.281102
	31.460000	0.333722
	31.465000	0.366609
	31.470000	0.317278
	31.475000	0.281102
	31.480000	0.333722
	31.485000	0.363321
	31.490000	0.313990
	31.495000	0.277814
	31.500000	0.327145
	31.505000	0.363321
	31.510000	0.313990
	31.515000	0.284391
	31.520000	0.330433
	31.525000	0.360032
	31.530000	0.313990
	31.535000	0.284391
	31.540000	0.333722
	31.545000	0.366609
	31.550000	0.313990
	31.555000	0.290969
	31.560000	0.337011
	31.565000	0.363321
	31.570000	0.313990
	31.575000	0.287680
	31.580000	0.330433
	31.585000	0.363321
	31.590000	0.310701
	31.595000	0.281102
	31.600000	0.333722
	31.605000	0.363321
	31.610000	0.310701
	31.615000	0.281102
	31.620000	0.330433
	31.625000	0.363321
	31.630000	0.317278
	31.635000	0.284391
	31.640000	0.333722
	31.645000	0.366609
	31.650000	0.317278
	31.655000	0.277814
	31.660000	0.330433
	31.665000	0.363321
	31.670000	0.317278
	31.675000	0.287680
	31.680000	0.330433
	31.685000	0.363321
	31.690000	0.317278
	31.695000	0.284391
	31.700000	0.333722
	31.705000	0.360032
	31.710000	0.310701
	31.715000	0.284391
	31.720000	0.333722
	31.725000	0.366609
	31.730000	0.310701
	31.735000	0.281102
	31.740000	0.333722
	31.745000	0.363321
	31.750000	0.317278
	31.755000	0.281102
	31.760000	0.330433
	31.765000	0.363321
	31.770000	0.310701
	31.775000	0.284391
	31.780000	0.327145
	31.785000	0.363321
	31.790000	0.313990
	31.795000	0.284391
	31.800000	0.327145
	31.805000	0.360032
	31.810000	0.310701
	31.815000	0.281102
	31.820000	0.330433
	31.825000	0.360032
	31.830000	0.313990
	31.835000	0.281102
	31.840000	0.327145
	31.845000	0.360032
	31.850000	0.313990
	31.855000	0.284391
	31.860000	0.330433
	31.865000	0.360032
	31.870000	0.317278
	31.875000	0.281102
	31.880000	0.330433
	31.885000	0.366609
	31.890000	0.313990
	31.895000	0.284391
	31.900000	0.333722
	31.905000	0.363321
	31.910000	0.313990
	31.915000	0.281102
	31.920000	0.337011
	31.925000	0.366609
	31.930000	0.313990
	31.935000	0.284391
	31.940000	0.337011
	31.945000	0.363321
	31.950000	0.313990
	31.955000	0.281102
	31.960000	0.330433
	31.965000	0.360032
	31.970000	0.313990
	31.975000	0.284391
	31.980000	0.333722
	31.985000	0.360032
	31.990000	0.313990
	31.995000	0.277814
	32.000000	0.333722
	32.005000	0.363321
	32.010000	0.313990
	32.015000	0.284391
	32.020000	0.330433
	32.025000	0.366609
	32.030000	0.313990
	32.035000	0.284391
	32.040000	0.333722
	32.045000	0.366609
	32.050000	0.310701
	32.055000	0.284391
	32.060000	0.327145
	32.065000	0.363321
	32.070000	0.313990
	32.075000	0.281102
	32.080000	0.330433
	32.085000	0.363321
	32.090000	0.313990
	32.095000	0.281102
	32.100000	0.333722
	32.105000	0.363321
	32.110000	0.313990
	32.115000	0.281102
	32.120000	0.333722
	32.125000	0.360032
	32.130000	0.310701
	32.135000	0.284391
	32.140000	0.330433
	32.145000	0.363321
	32.150000	0.313990
	32.155000	0.287680
	32.160000	0.333722
	32.165000	0.363321
	32.170000	0.310701
	32.175000	0.281102
	32.180000	0.330433
	32.185000	0.363321
	32.190000	0.310701
	32.195000	0.281102
	32.200000	0.330433
	32.205000	0.366609
	32.210000	0.313990
	32.215000	0.284391
	32.220000	0.330433
	32.225000	0.356743
	32.230000	0.310701
	32.235000	0.281102
	32.240000	0.333722
	32.245000	0.363321
	32.250000	0.313990
	32.255000	0.284391
	32.260000	0.333722
	32.265000	0.363321
	32.270000	0.310701
	32.275000	0.287680
	32.280000	0.333722
	32.285000	0.360032
	32.290000	0.310701
	32.295000	0.281102
	32.300000	0.327145
	32.305000	0.363321
	32.310000	0.313990
	32.315000	0.284391
	32.320000	0.337011
	32.325000	0.360032
	32.330000	0.307412
	32.335000	0.281102
	32.340000	0.333722
	32.345000	0.360032
	32.350000	0.304124
	32.355000	0.281102
	32.360000	0.330433
	32.365000	0.360032
	32.370000	0.310701
	32.375000	0.277814
	32.380000	0.330433
	32.385000	0.363321
	32.390000	0.307412
	32.395000	0.281102
	32.400000	0.333722
	32.405000	0.360032
	32.410000	0.304124
	32.415000	0.277814
	32.420000	0.327145
	32.425000	0.360032
	32.430000	0.307412
	32.435000	0.274525
	32.440000	0.327145
	32.445000	0.356743
	32.450000	0.307412
	32.455000	0.277814
	32.460000	0.330433
	32.465000	0.356743
	32.470000	0.307412
	32.475000	0.271236
	32.480000	0.320567
	32.485000	0.356743
	32.490000	0.304124
	32.495000	0.271236
	32.500000	0.323856
	32.505000	0.356743
	32.510000	0.304124
	32.515000	0.281102
	32.520000	0.330433
	32.525000	0.356743
	32.530000	0.304124
	32.535000	0.277814
	32.540000	0.327145
	32.545000	0.353454
	32.550000	0.307412
	32.555000	0.277814
	32.560000	0.333722
	32.565000	0.356743
	32.570000	0.307412
	32.575000	0.277814
	32.580000	0.330433
	32.585000	0.353454
	32.590000	0.300835
	32.595000	0.277814
	32.600000	0.327145
	32.605000	0.356743
	32.610000	0.304124
	32.615000	0.277814
	32.620000	0.327145
	32.625000	0.356743
	32.630000	0.304124
	32.635000	0.277814
	32.640000	0.327145
	32.645000	0.360032
	32.650000	0.300835
	32.655000	0.277814
	32.660000	0.323856
	32.665000	0.356743
	32.670000	0.300835
	32.675000	0.274525
	32.680000	0.323856
	32.685000	0.353454
	32.690000	0.297546
	32.695000	0.274525
	32.700000	0.330433
	32.705000	0.350166
	32.710000	0.300835
	32.715000	0.271236
	32.720000	0.330433
	32.725000	0.350166
	32.730000	0.300835
	32.735000	0.277814
	32.740000	0.320567
	32.745000	0.350166
	32.750000	0.300835
	32.755000	0.277814
	32.760000	0.323856
	32.765000	0.350166
	32.770000	0.300835
	32.775000	0.274525
	32.780000	0.327145
	32.785000	0.353454
	32.790000	0.304124
	32.795000	0.274525
	32.800000	0.320567
	32.805000	0.353454
	32.810000	0.297546
	32.815000	0.277814
	32.820000	0.323856
	32.825000	0.356743
	32.830000	0.294257
	32.835000	0.274525
	32.840000	0.323856
	32.845000	0.350166
	32.850000	0.297546
	32.855000	0.271236
	32.860000	0.323856
	32.865000	0.346877
	32.870000	0.297546
	32.875000	0.274525
	32.880000	0.323856
	32.885000	0.350166
	32.890000	0.300835
	32.895000	0.271236
	32.900000	0.323856
	32.905000	0.353454
	32.910000	0.297546
	32.915000	0.274525
	32.920000	0.327145
	32.925000	0.350166
	32.930000	0.297546
	32.935000	0.271236
	32.940000	0.327145
	32.945000	0.350166
	32.950000	0.297546
	32.955000	0.274525
	32.960000	0.323856
	32.965000	0.350166
	32.970000	0.297546
	32.975000	0.274525
	32.980000	0.320567
	32.985000	0.350166
	32.990000	0.304124
	32.995000	0.274525
	33.000000	0.327145
	33.005000	0.353454
	33.010000	0.300835
	33.015000	0.274525
	33.020000	0.323856
	33.025000	0.353454
	33.030000	0.297546
	33.035000	0.277814
	33.040000	0.330433
	33.045000	0.353454
	33.050000	0.300835
	33.055000	0.271236
	33.060000	0.323856
	33.065000	0.356743
	33.070000	0.300835
	33.075000	0.274525
	33.080000	0.323856
	33.085000	0.350166
	33.090000	0.297546
	33.095000	0.274525
	33.100000	0.327145
	33.105000	0.356743
	33.110000	0.304124
	33.115000	0.277814
	33.120000	0.330433
	33.125000	0.353454
	33.130000	0.304124
	33.135000	0.274525
	33.140000	0.330433
	33.145000	0.353454
	33.150000	0.300835
	33.155000	0.277814
	33.160000	0.330433
	33.165000	0.353454
	33.170000	0.304124
	33.175000	0.277814
	33.180000	0.327145
	33.185000	0.356743
	33.190000	0.304124
	33.195000	0.274525
	33.200000	0.327145
	33.205000	0.360032
	33.210000	0.304124
	33.215000	0.274525
	33.220000	0.330433
	33.225000	0.356743
	33.230000	0.304124
	33.235000	0.277814
	33.240000	0.330433
	33.245000	0.360032
	33.250000	0.304124
	33.255000	0.277814
	33.260000	0.327145
	33.265000	0.360032
	33.270000	0.300835
	33.275000	0.277814
	33.280000	0.330433
	33.285000	0.353454
	33.290000	0.304124
	33.295000	0.277814
	33.300000	0.330433
	33.305000	0.356743
	33.310000	0.300835
	33.315000	0.277814
	33.320000	0.330433
	33.325000	0.360032
	33.330000	0.304124
	33.335000	0.281102
	33.340000	0.330433
	33.345000	0.356743
	33.350000	0.300835
	33.355000	0.274525
	33.360000	0.333722
	33.365000	0.356743
	33.370000	0.300835
	33.375000	0.281102
	33.380000	0.337011
	33.385000	0.353454
	33.390000	0.304124
	33.395000	0.277814
	33.400000	0.333722
	33.405000	0.356743
	33.410000	0.307412
	33.415000	0.287680
	33.420000	0.340299
	33.425000	0.366609
	33.430000	0.313990
	33.435000	0.297546
	33.440000	0.353454
	33.445000	0.379764
	33.450000	0.330433
	33.455000	0.307412
	33.460000	0.363321
	33.465000	0.386342
	33.470000	0.330433
	33.475000	0.313990
	33.480000	0.366609
	33.485000	0.392919
	33.490000	0.346877
	33.495000	0.323856
	33.500000	0.379764
	33.505000	0.402785
	33.510000	0.353454
	33.515000	0.333722
	33.520000	0.379764
	33.525000	0.406074
	33.530000	0.360032
	33.535000	0.340299
	33.540000	0.389630
	33.545000	0.415940
	33.550000	0.366609
	33.555000	0.350166
	33.560000	0.402785
	33.565000	0.422518
	33.570000	0.373187
	33.575000	0.353454
	33.580000	0.409363
	33.585000	0.432384
	33.590000	0.383053
	33.595000	0.353454
	33.600000	0.406074
	33.605000	0.429095
	33.610000	0.379764
	33.615000	0.360032
	33.620000	0.406074
	33.625000	0.425806
	33.630000	0.376475
	33.635000	0.353454
	33.640000	0.402785
	33.645000	0.425806
	33.650000	0.376475
	33.655000	0.356743
	33.660000	0.406074
	33.665000	0.425806
	33.670000	0.373187
	33.675000	0.360032
	33.680000	0.409363
	33.685000	0.425806
	33.690000	0.379764
	33.695000	0.360032
	33.700000	0.412651
	33.705000	0.422518
	33.710000	0.383053
	33.715000	0.356743
	33.720000	0.406074
	33.725000	0.432384
	33.730000	0.376475
	33.735000	0.356743
	33.740000	0.406074
	33.745000	0.425806
	33.750000	0.379764
	33.755000	0.356743
	33.760000	0.412651
	33.765000	0.429095
	33.770000	0.379764
	33.775000	0.356743
	33.780000	0.406074
	33.785000	0.422518
	33.790000	0.379764
	33.795000	0.360032
	33.800000	0.406074
	33.805000	0.425806
	33.810000	0.379764
	33.815000	0.356743
	33.820000	0.406074
	33.825000	0.425806
	33.830000	0.376475
	33.835000	0.360032
	33.840000	0.402785
	33.845000	0.422518
	33.850000	0.369898
	33.855000	0.350166
	33.860000	0.399496
	33.865000	0.419229
	33.870000	0.369898
	33.875000	0.346877
	33.880000	0.396208
	33.885000	0.415940
	33.890000	0.363321
	33.895000	0.343588
	33.900000	0.389630
	33.905000	0.412651
	33.910000	0.360032
	33.915000	0.340299
	33.920000	0.392919
	33.925000	0.409363
	33.930000	0.353454
	33.935000	0.340299
	33.940000	0.383053
	33.945000	0.399496
	33.950000	0.350166
	33.955000	0.337011
	33.960000	0.383053
	33.965000	0.399496
	33.970000	0.350166
	33.975000	0.327145
	33.980000	0.376475
	33.985000	0.396208
	33.990000	0.340299
	33.995000	0.327145
	34.000000	0.376475
	34.005000	0.389630
	34.010000	0.343588
	34.015000	0.320567
	34.020000	0.363321
	34.025000	0.383053
	34.030000	0.333722
	34.035000	0.317278
	34.040000	0.363321
	34.045000	0.379764
	34.050000	0.323856
	34.055000	0.304124
	34.060000	0.353454
	34.065000	0.369898
	34.070000	0.317278
	34.075000	0.297546
	34.080000	0.350166
	34.085000	0.363321
	34.090000	0.307412
	34.095000	0.290969
	34.100000	0.343588
	34.105000	0.360032
	34.110000	0.304124
	34.115000	0.284391
	34.120000	0.333722
	34.125000	0.360032
	34.130000	0.304124
	34.135000	0.284391
	34.140000	0.333722
	34.145000	0.353454
	34.150000	0.300835
	34.155000	0.281102
	34.160000	0.333722
	34.165000	0.350166
	34.170000	0.297546
	34.175000	0.281102
	34.180000	0.333722
	34.185000	0.350166
	34.190000	0.297546
	34.195000	0.274525
	34.200000	0.330433
	34.205000	0.350166
	34.210000	0.300835
	34.215000	0.274525
	34.220000	0.327145
	34.225000	0.343588
	34.230000	0.290969
	34.235000	0.271236
	34.240000	0.327145
	34.245000	0.340299
	34.250000	0.290969
	34.255000	0.271236
	34.260000	0.327145
	34.265000	0.346877
	34.270000	0.287680
	34.275000	0.274525
	34.280000	0.323856
	34.285000	0.340299
	34.290000	0.287680
	34.295000	0.267948
	34.300000	0.323856
	34.305000	0.343588
	34.310000	0.287680
	34.315000	0.271236
	34.320000	0.327145
	34.325000	0.343588
	34.330000	0.287680
	34.335000	0.271236
	34.340000	0.327145
	34.345000	0.343588
	34.350000	0.290969
	34.355000	0.274525
	34.360000	0.327145
	34.365000	0.346877
	34.370000	0.287680
	34.375000	0.274525
	34.380000	0.327145
	34.385000	0.346877
	34.390000	0.290969
	34.395000	0.281102
	34.400000	0.330433
	34.405000	0.350166
	34.410000	0.290969
	34.415000	0.274525
	34.420000	0.330433
	34.425000	0.353454
	34.430000	0.294257
	34.435000	0.277814
	34.440000	0.330433
	34.445000	0.343588
	34.450000	0.294257
	34.455000	0.274525
	34.460000	0.327145
	34.465000	0.353454
	34.470000	0.297546
	34.475000	0.277814
	34.480000	0.330433
	34.485000	0.343588
	34.490000	0.290969
	34.495000	0.281102
	34.500000	0.330433
	34.505000	0.350166
	34.510000	0.297546
	34.515000	0.277814
	34.520000	0.333722
	34.525000	0.353454
	34.530000	0.297546
	34.535000	0.274525
	34.540000	0.330433
	34.545000	0.353454
	34.550000	0.294257
	34.555000	0.274525
	34.560000	0.333722
	34.565000	0.353454
	34.570000	0.294257
	34.575000	0.277814
	34.580000	0.337011
	34.585000	0.350166
	34.590000	0.294257
	34.595000	0.277814
	34.600000	0.333722
	34.605000	0.350166
	34.610000	0.300835
	34.615000	0.284391
	34.620000	0.340299
	34.625000	0.353454
	34.630000	0.294257
	34.635000	0.284391
	34.640000	0.337011
	34.645000	0.353454
	34.650000	0.300835
	34.655000	0.284391
	34.660000	0.337011
	34.665000	0.360032
	34.670000	0.294257
	34.675000	0.281102
	34.680000	0.340299
	34.685000	0.356743
	34.690000	0.297546
	34.695000	0.281102
	34.700000	0.337011
	34.705000	0.353454
	34.710000	0.297546
	34.715000	0.284391
	34.720000	0.340299
	34.725000	0.353454
	34.730000	0.297546
	34.735000	0.281102
	34.740000	0.340299
	34.745000	0.353454
	34.750000	0.300835
	34.755000	0.287680
	34.760000	0.340299
	34.765000	0.356743
	34.770000	0.297546
	34.775000	0.284391
	34.780000	0.343588
	34.785000	0.360032
	34.790000	0.300835
	34.795000	0.281102
	34.800000	0.340299
	34.805000	0.353454
	34.810000	0.297546
	34.815000	0.287680
	34.820000	0.340299
	34.825000	0.356743
	34.830000	0.297546
	34.835000	0.284391
	34.840000	0.340299
	34.845000	0.356743
	34.850000	0.297546
	34.855000	0.284391
	34.860000	0.340299
	34.865000	0.360032
	34.870000	0.297546
	34.875000	0.284391
	34.880000	0.340299
	34.885000	0.356743
	34.890000	0.300835
	34.895000	0.284391
	34.900000	0.337011
	34.905000	0.356743
	34.910000	0.300835
	34.915000	0.284391
	34.920000	0.343588
	34.925000	0.356743
	34.930000	0.300835
	34.935000	0.287680
	34.940000	0.346877
	34.945000	0.360032
	34.950000	0.294257
	34.955000	0.284391
	34.960000	0.340299
	34.965000	0.360032
	34.970000	0.300835
	34.975000	0.287680
	34.980000	0.340299
	34.985000	0.356743
	34.990000	0.297546
	34.995000	0.287680
	35.000000	0.340299
	35.005000	0.360032
	35.010000	0.304124
	35.015000	0.287680
	35.020000	0.343588
	35.025000	0.356743
	35.030000	0.297546
	35.035000	0.284391
	35.040000	0.340299
	35.045000	0.353454
	35.050000	0.300835
	35.055000	0.290969
	35.060000	0.340299
	35.065000	0.356743
	35.070000	0.300835
	35.075000	0.290969
	35.080000	0.340299
	35.085000	0.356743
	35.090000	0.300835
	35.095000	0.287680
	35.100000	0.343588
	35.105000	0.356743
	35.110000	0.300835
	35.115000	0.294257
	35.120000	0.343588
	35.125000	0.360032
	35.130000	0.300835
	35.135000	0.287680
	35.140000	0.346877
	35.145000	0.356743
	35.150000	0.300835
	35.155000	0.287680
	35.160000	0.346877
	35.165000	0.356743
	35.170000	0.297546
	35.175000	0.287680
	35.180000	0.346877
	35.185000	0.356743
	35.190000	0.304124
	35.195000	0.287680
	35.200000	0.340299
	35.205000	0.350166
	35.210000	0.304124
	35.215000	0.287680
	35.220000	0.343588
	35.225000	0.360032
	35.230000	0.300835
	35.235000	0.287680
	35.240000	0.346877
	35.245000	0.360032
	35.250000	0.300835
	35.255000	0.290969
	35.260000	0.343588
	35.265000	0.356743
	35.270000	0.300835
	35.275000	0.290969
	35.280000	0.343588
	35.285000	0.356743
	35.290000	0.300835
	35.295000	0.290969
	35.300000	0.343588
	35.305000	0.363321
	35.310000	0.304124
	35.315000	0.290969
	35.320000	0.350166
	35.325000	0.360032
	35.330000	0.304124
	35.335000	0.294257
	35.340000	0.350166
	35.345000	0.360032
	35.350000	0.300835
	35.355000	0.294257
	35.360000	0.350166
	35.365000	0.360032
	35.370000	0.297546
	35.375000	0.294257
	35.380000	0.350166
	35.385000	0.356743
	35.390000	0.307412
	35.395000	0.294257
	35.400000	0.350166
	35.405000	0.356743
	35.410000	0.304124
	35.415000	0.294257
	35.420000	0.353454
	35.425000	0.360032
	35.430000	0.304124
	35.435000	0.290969
	35.440000	0.353454
	35.445000	0.363321
	35.450000	0.304124
	35.455000	0.297546
	35.460000	0.350166
	35.465000	0.356743
	35.470000	0.304124
	35.475000	0.300835
	35.480000	0.353454
	35.485000	0.363321
	35.490000	0.304124
	35.495000	0.294257
	35.500000	0.350166
	35.505000	0.363321
	35.510000	0.300835
	35.515000	0.294257
	35.520000	0.356743
	35.525000	0.363321
	35.530000	0.304124
	35.535000	0.290969
	35.540000	0.346877
	35.545000	0.363321
	35.550000	0.304124
	35.555000	0.294257
	35.560000	0.350166
	35.565000	0.360032
	35.570000	0.307412
	35.575000	0.290969
	35.580000	0.353454
	35.585000	0.360032
	35.590000	0.304124
	35.595000	0.297546
	35.600000	0.353454
	35.605000	0.360032
	35.610000	0.297546
	35.615000	0.294257
	35.620000	0.353454
	35.625000	0.356743
	35.630000	0.297546
	35.635000	0.294257
	35.640000	0.346877
	35.645000	0.363321
	35.650000	0.304124
	35.655000	0.290969
	35.660000	0.350166
	35.665000	0.360032
	35.670000	0.300835
	35.675000	0.294257
	35.680000	0.353454
	35.685000	0.360032
	35.690000	0.304124
	35.695000	0.294257
	35.700000	0.346877
	35.705000	0.366609
	35.710000	0.300835
	35.715000	0.297546
	35.720000	0.353454
	35.725000	0.366609
	35.730000	0.304124
	35.735000	0.297546
	35.740000	0.353454
	35.745000	0.363321
	35.750000	0.300835
	35.755000	0.297546
	35.760000	0.353454
	35.765000	0.366609
	35.770000	0.297546
	35.775000	0.297546
	35.780000	0.356743
	35.785000	0.363321
	35.790000	0.300835
	35.795000	0.294257
	35.800000	0.353454
	35.805000	0.360032
	35.810000	0.300835
	35.815000	0.294257
	35.820000	0.353454
	35.825000	0.356743
	35.830000	0.307412
	35.835000	0.290969
	35.840000	0.353454
	35.845000	0.363321
	35.850000	0.300835
	35.855000	0.297546
	35.860000	0.350166
	35.865000	0.360032
	35.870000	0.297546
	35.875000	0.294257
	35.880000	0.350166
	35.885000	0.360032
	35.890000	0.300835
	35.895000	0.294257
	35.900000	0.353454
	35.905000	0.360032
	35.910000	0.297546
	35.915000	0.297546
	35.920000	0.346877
	35.925000	0.363321
	35.930000	0.300835
	35.935000	0.290969
	35.940000	0.346877
	35.945000	0.356743
	35.950000	0.300835
	35.955000	0.294257
	35.960000	0.353454
	35.965000	0.360032
	35.970000	0.297546
	35.975000	0.294257
	35.980000	0.353454
	35.985000	0.360032
	35.990000	0.300835
	35.995000	0.290969
	36.000000	0.350166
	36.005000	0.363321
	36.010000	0.297546
	36.015000	0.290969
	36.020000	0.356743
	36.025000	0.360032
	36.030000	0.300835
	36.035000	0.290969
	36.040000	0.353454
	36.045000	0.353454
	36.050000	0.297546
	36.055000	0.294257
	36.060000	0.346877
	36.065000	0.356743
	36.070000	0.297546
	36.075000	0.294257
	36.080000	0.356743
	36.085000	0.360032
	36.090000	0.300835
	36.095000	0.290969
	36.100000	0.343588
	36.105000	0.356743
	36.110000	0.300835
	36.115000	0.297546
	36.120000	0.353454
	36.125000	0.363321
	36.130000	0.300835
	36.135000	0.300835
	36.140000	0.356743
	36.145000	0.360032
	36.150000	0.300835
	36.155000	0.300835
	36.160000	0.353454
	36.165000	0.356743
	36.170000	0.300835
	36.175000	0.294257
	36.180000	0.353454
	36.185000	0.360032
	36.190000	0.300835
	36.195000	0.297546
	36.200000	0.353454
	36.205000	0.360032
	36.210000	0.304124
	36.215000	0.297546
	36.220000	0.353454
	36.225000	0.360032
	36.230000	0.300835
	36.235000	0.300835
	36.240000	0.353454
	36.245000	0.363321
	36.250000	0.307412
	36.255000	0.297546
	36.260000	0.353454
	36.265000	0.363321
	36.270000	0.300835
	36.275000	0.294257
	36.280000	0.356743
	36.285000	0.360032
	36.290000	0.304124
	36.295000	0.297546
	36.300000	0.356743
	36.305000	0.360032
	36.310000	0.300835
	36.315000	0.297546
	36.320000	0.356743
	36.325000	0.360032
	36.330000	0.300835
	36.335000	0.297546
	36.340000	0.356743
	36.345000	0.360032
	36.350000	0.304124
	36.355000	0.300835
	36.360000	0.356743
	36.365000	0.360032
	36.370000	0.300835
	36.375000	0.300835
	36.380000	0.356743
	36.385000	0.366609
	36.390000	0.304124
	36.395000	0.297546
	36.400000	0.353454
	36.405000	0.360032
	36.410000	0.297546
	36.415000	0.294257
	36.420000	0.353454
	36.425000	0.363321
	36.430000	0.300835
	36.435000	0.300835
	36.440000	0.360032
	36.445000	0.363321
	36.450000	0.300835
	36.455000	0.297546
	36.460000	0.356743
	36.465000	0.356743
	36.470000	0.300835
	36.475000	0.297546
	36.480000	0.356743
	36.485000	0.356743
	36.490000	0.300835
	36.495000	0.300835
	36.500000	0.356743
	36.505000	0.360032
	36.510000	0.304124
	36.515000	0.297546
	36.520000	0.356743
	36.525000	0.356743
	36.530000	0.297546
	36.535000	0.300835
	36.540000	0.350166
	36.545000	0.356743
	36.550000	0.300835
	36.555000	0.300835
	36.560000	0.353454
	36.565000	0.356743
	36.570000	0.300835
	36.575000	0.297546
	36.580000	0.353454
	36.585000	0.360032
	36.590000	0.304124
	36.595000	0.300835
	36.600000	0.353454
	36.605000	0.356743
	36.610000	0.304124
	36.615000	0.294257
	36.620000	0.356743
	36.625000	0.356743
	36.630000	0.300835
	36.635000	0.300835
	36.640000	0.356743
	36.645000	0.356743
	36.650000	0.297546
	36.655000	0.294257
	36.660000	0.353454
	36.665000	0.356743
	36.670000	0.300835
	36.675000	0.300835
	36.680000	0.356743
	36.685000	0.363321
	36.690000	0.300835
	36.695000	0.297546
	36.700000	0.356743
	36.705000	0.356743
	36.710000	0.294257
	36.715000	0.300835
	36.720000	0.353454
	36.725000	0.356743
	36.730000	0.304124
	36.735000	0.297546
	36.740000	0.350166
	36.745000	0.356743
	36.750000	0.300835
	36.755000	0.297546
	36.760000	0.360032
	36.765000	0.360032
	36.770000	0.294257
	36.775000	0.294257
	36.780000	0.356743
	36.785000	0.353454
	36.790000	0.294257
	36.795000	0.297546
	36.800000	0.350166
	36.805000	0.356743
	36.810000	0.294257
	36.815000	0.290969
	36.820000	0.360032
	36.825000	0.360032
	36.830000	0.297546
	36.835000	0.290969
	36.840000	0.353454
	36.845000	0.350166
	36.850000	0.297546
	36.855000	0.294257
	36.860000	0.353454
	36.865000	0.356743
	36.870000	0.297546
	36.875000	0.290969
	36.880000	0.356743
	36.885000	0.356743
	36.890000	0.297546
	36.895000	0.300835
	36.900000	0.356743
	36.905000	0.356743
	36.910000	0.297546
	36.915000	0.297546
	36.920000	0.353454
	36.925000	0.356743
	36.930000	0.294257
	36.935000	0.294257
	36.940000	0.350166
	36.945000	0.353454
	36.950000	0.294257
	36.955000	0.294257
	36.960000	0.356743
	36.965000	0.356743
	36.970000	0.297546
	36.975000	0.297546
	36.980000	0.353454
	36.985000	0.356743
	36.990000	0.297546
	36.995000	0.297546
	37.000000	0.353454
	37.005000	0.360032
	37.010000	0.290969
	37.015000	0.290969
	37.020000	0.356743
	37.025000	0.360032
	37.030000	0.297546
	37.035000	0.294257
	37.040000	0.350166
	37.045000	0.350166
	37.050000	0.297546
	37.055000	0.300835
	37.060000	0.353454
	37.065000	0.353454
	37.070000	0.294257
	37.075000	0.297546
	37.080000	0.350166
	37.085000	0.356743
	37.090000	0.294257
	37.095000	0.300835
	37.100000	0.353454
	37.105000	0.356743
	37.110000	0.297546
	37.115000	0.297546
	37.120000	0.356743
	37.125000	0.353454
	37.130000	0.290969
	37.135000	0.297546
	37.140000	0.356743
	37.145000	0.350166
	37.150000	0.294257
	37.155000	0.294257
	37.160000	0.353454
	37.165000	0.346877
	37.170000	0.297546
	37.175000	0.294257
	37.180000	0.353454
	37.185000	0.350166
	37.190000	0.294257
	37.195000	0.297546
	37.200000	0.353454
	37.205000	0.353454
	37.210000	0.294257
	37.215000	0.294257
	37.220000	0.353454
	37.225000	0.353454
	37.230000	0.290969
	37.235000	0.294257
	37.240000	0.356743
	37.245000	0.356743
	37.250000	0.294257
	37.255000	0.297546
	37.260000	0.353454
	37.265000	0.353454
	37.270000	0.294257
	37.275000	0.297546
	37.280000	0.360032
	37.285000	0.353454
	37.290000	0.297546
	37.295000	0.307412
	37.300000	0.363321
	37.305000	0.363321
	37.310000	0.310701
	37.315000	0.317278
	37.320000	0.373187
	37.325000	0.369898
	37.330000	0.320567
	37.335000	0.320567
	37.340000	0.379764
	37.345000	0.379764
	37.350000	0.327145
	37.355000	0.330433
	37.360000	0.386342
	37.365000	0.386342
	37.370000	0.333722
	37.375000	0.337011
	37.380000	0.392919
	37.385000	0.399496
	37.390000	0.337011
	37.395000	0.343588
	37.400000	0.399496
	37.405000	0.399496
	37.410000	0.350166
	37.415000	0.353454
	37.420000	0.406074
	37.425000	0.412651
	37.430000	0.356743
	37.435000	0.363321
	37.440000	0.415940
	37.445000	0.419229
	37.450000	0.369898
	37.455000	0.366609
	37.460000	0.422518
	37.465000	0.422518
	37.470000	0.363321
	37.475000	0.369898
	37.480000	0.425806
	37.485000	0.419229
	37.490000	0.369898
	37.495000	0.369898
	37.500000	0.425806
	37.505000	0.422518
	37.510000	0.369898
	37.515000	0.369898
	37.520000	0.422518
	37.525000	0.425806
	37.530000	0.369898
	37.535000	0.376475
	37.540000	0.425806
	37.545000	0.422518
	37.550000	0.369898
	37.555000	0.373187
	37.560000	0.425806
	37.565000	0.422518
	37.570000	0.373187
	37.575000	0.373187
	37.580000	0.422518
	37.585000	0.422518
	37.590000	0.360032
	37.595000	0.373187
	37.600000	0.422518
	37.605000	0.419229
	37.610000	0.363321
	37.615000	0.366609
	37.620000	0.415940
	37.625000	0.415940
	37.630000	0.369898
	37.635000	0.366609
	37.640000	0.419229
	37.645000	0.415940
	37.650000	0.366609
	37.655000	0.366609
	37.660000	0.419229
	37.665000	0.422518
	37.670000	0.363321
	37.675000	0.369898
	37.680000	0.422518
	37.685000	0.415940
	37.690000	0.369898
	37.695000	0.369898
	37.700000	0.422518
	37.705000	0.422518
	37.710000	0.366609
	37.715000	0.376475
	37.720000	0.422518
	37.725000	0.415940
	37.730000	0.366609
	37.735000	0.366609
	37.740000	0.419229
	37.745000	0.415940
	37.750000	0.363321
	37.755000	0.369898
	37.760000	0.419229
	37.765000	0.409363
	37.770000	0.363321
	37.775000	0.363321
	37.780000	0.415940
	37.785000	0.415940
	37.790000	0.360032
	37.795000	0.360032
	37.800000	0.409363
	37.805000	0.409363
	37.810000	0.353454
	37.815000	0.353454
	37.820000	0.409363
	37.825000	0.402785
	37.830000	0.353454
	37.835000	0.360032
	37.840000	0.406074
	37.845000	0.399496
	37.850000	0.343588
	37.855000	0.343588
	37.860000	0.399496
	37.865000	0.396208
	37.870000	0.337011
	37.875000	0.343588
	37.880000	0.396208
	37.885000	0.392919
	37.890000	0.337011
	37.895000	0.340299
	37.900000	0.392919
	37.905000	0.386342
	37.910000	0.327145
	37.915000	0.333722
	37.920000	0.386342
	37.925000	0.379764
	37.930000	0.323856
	37.935000	0.327145
	37.940000	0.379764
	37.945000	0.373187
	37.950000	0.313990
	37.955000	0.320567
	37.960000	0.369898
	37.965000	0.366609
	37.970000	0.310701
	37.975000	0.317278
	37.980000	0.366609
	37.985000	0.360032
	37.990000	0.307412
	37.995000	0.310701
	38.000000	0.363321
	38.005000	0.353454
	38.010000	0.300835
	38.015000	0.307412
	38.020000	0.360032
	38.025000	0.350166
	38.030000	0.297546
	38.035000	0.304124
	38.040000	0.360032
	38.045000	0.356743
	38.050000	0.300835
	38.055000	0.304124
	38.060000	0.363321
	38.065000	0.360032
	38.070000	0.300835
	38.075000	0.304124
	38.080000	0.360032
	38.085000	0.350166
	38.090000	0.294257
	38.095000	0.300835
	38.100000	0.353454
	38.105000	0.343588
	38.110000	0.287680
	38.115000	0.290969
	38.120000	0.346877
	38.125000	0.340299
	38.130000	0.284391
	38.135000	0.287680
	38.140000	0.340299
	38.145000	0.337011
	38.150000	0.277814
	38.155000	0.281102
	38.160000	0.340299
	38.165000	0.330433
	38.170000	0.274525
	38.175000	0.281102
	38.180000	0.333722
	38.185000	0.327145
	38.190000	0.271236
	38.195000	0.274525
	38.200000	0.330433
	38.205000	0.320567
	38.210000	0.264659
	38.215000	0.277814
	38.220000	0.333722
	38.225000	0.327145
	38.230000	0.267948
	38.235000	0.274525
	38.240000	0.330433
	38.245000	0.330433
	38.250000	0.267948
	38.255000	0.274525
	38.260000	0.337011
	38.265000	0.323856
	38.270000	0.274525
	38.275000	0.281102
	38.280000	0.337011
	38.285000	0.330433
	38.290000	0.271236
	38.295000	0.277814
	38.300000	0.330433
	38.305000	0.330433
	38.310000	0.271236
	38.315000	0.284391
	38.320000	0.337011
	38.325000	0.327145
	38.330000	0.271236
	38.335000	0.284391
	38.340000	0.340299
	38.345000	0.330433
	38.350000	0.271236
	38.355000	0.284391
	38.360000	0.340299
	38.365000	0.330433
	38.370000	0.274525
	38.375000	0.281102
	38.380000	0.340299
	38.385000	0.333722
	38.390000	0.274525
	38.395000	0.287680
	38.400000	0.343588
	38.405000	0.337011
	38.410000	0.277814
	38.415000	0.287680
	38.420000	0.343588
	38.425000	0.333722
	38.430000	0.277814
	38.435000	0.287680
	38.440000	0.346877
	38.445000	0.333722
	38.450000	0.277814
	38.455000	0.284391
	38.460000	0.343588
	38.465000	0.333722
	38.470000	0.277814
	38.475000	0.290969
	38.480000	0.346877
	38.485000	0.340299
	38.490000	0.277814
	38.495000	0.290969
	38.500000	0.343588
	38.505000	0.340299
	38.510000	0.281102
	38.515000	0.287680
	38.520000	0.350166
	38.525000	0.340299
	38.530000	0.277814
	38.535000	0.287680
	38.540000	0.346877
	38.545000	0.340299
	38.550000	0.281102
	38.555000	0.290969
	38.560000	0.343588
	38.565000	0.337011
	38.570000	0.281102
	38.575000	0.294257
	38.580000	0.350166
	38.585000	0.340299
	38.590000	0.281102
	38.595000	0.297546
	38.600000	0.346877
	38.605000	0.340299
	38.610000	0.287680
	38.615000	0.287680
	38.620000	0.350166
	38.625000	0.340299
	38.630000	0.284391
	38.635000	0.294257
	38.640000	0.350166
	38.645000	0.340299
	38.650000	0.281102
	38.655000	0.297546
	38.660000	0.350166
	38.665000	0.340299
	38.670000	0.287680
	38.675000	0.300835
	38.680000	0.350166
	38.685000	0.350166
	38.690000	0.287680
	38.695000	0.297546
	38.700000	0.356743
	38.705000	0.343588
	38.710000	0.284391
	38.715000	0.297546
	38.720000	0.356743
	38.725000	0.340299
	38.730000	0.287680
	38.735000	0.297546
	38.740000	0.360032
	38.745000	0.343588
	38.750000	0.284391
	38.755000	0.300835
	38.760000	0.356743
	38.765000	0.350166
	38.770000	0.287680
	38.775000	0.300835
	38.780000	0.356743
	38.785000	0.340299
	38.790000	0.290969
	38.795000	0.297546
	38.800000	0.363321
	38.805000	0.346877
	38.810000	0.287680
	38.815000	0.307412
	38.820000	0.360032
	38.825000	0.350166
	38.830000	0.290969
	38.835000	0.307412
	38.840000	0.360032
	38.845000	0.350166
	38.850000	0.287680
	38.855000	0.307412
	38.860000	0.360032
	38.865000	0.350166
	38.870000	0.294257
	38.875000	0.304124
	38.880000	0.363321
	38.885000	0.350166
	38.890000	0.290969
	38.895000	0.304124
	38.900000	0.363321
	38.905000	0.353454
	38.910000	0.290969
	38.915000	0.300835
	38.920000	0.366609
	38.925000	0.343588
	38.930000	0.287680
	38.935000	0.307412
	38.940000	0.360032
	38.945000	0.353454
	38.950000	0.290969
	38.955000	0.304124
	38.960000	0.360032
	38.965000	0.353454
	38.970000	0.294257
	38.975000	0.304124
	38.980000	0.363321
	38.985000	0.350166
	38.990000	0.290969
	38.995000	0.307412
	39.000000	0.360032
	39.005000	0.346877
	39.010000	0.290969
	39.015000	0.310701
	39.020000	0.363321
	39.025000	0.346877
	39.030000	0.294257
	39.035000	0.304124
	39.040000	0.366609
	39.045000	0.353454
	39.050000	0.294257
	39.055000	0.307412
	39.060000	0.363321
	39.065000	0.350166
	39.070000	0.290969
	39.075000	0.304124
	39.080000	0.363321
	39.085000	0.353454
	39.090000	0.294257
	39.095000	0.310701
	39.100000	0.363321
	39.105000	0.356743
	39.110000	0.290969
	39.115000	0.307412
	39.120000	0.363321
	39.125000	0.350166
	39.130000	0.294257
	39.135000	0.307412
	39.140000	0.366609
	39.145000	0.350166
	39.150000	0.290969
	39.155000	0.310701
	39.160000	0.366609
	39.165000	0.356743
	39.170000	0.290969
	39.175000	0.310701
	39.180000	0.366609
	39.185000	0.350166
	39.190000	0.294257
	39.195000	0.307412
	39.200000	0.366609
	39.205000	0.350166
	39.210000	0.294257
	39.215000	0.310701
	39.220000	0.369898
	39.225000	0.353454
	39.230000	0.294257
	39.235000	0.313990
	39.240000	0.366609
	39.245000	0.350166
	39.250000	0.290969
	39.255000	0.307412
	39.260000	0.369898
	39.265000	0.350166
	39.270000	0.297546
	39.275000	0.310701
	39.280000	0.369898
	39.285000	0.350166
	39.290000	0.294257
	39.295000	0.310701
	39.300000	0.366609
	39.305000	0.353454
	39.310000	0.297546
	39.315000	0.313990
	39.320000	0.369898
	39.325000	0.353454
	39.330000	0.294257
	39.335000	0.313990
	39.340000	0.369898
	39.345000	0.353454
	39.350000	0.297546
	39.355000	0.313990
	39.360000	0.373187
	39.365000	0.360032
	39.370000	0.297546
	39.375000	0.313990
	39.380000	0.373187
	39.385000	0.360032
	39.390000	0.300835
	39.395000	0.317278
	39.400000	0.369898
	39.405000	0.356743
	39.410000	0.300835
	39.415000	0.313990
	39.420000	0.373187
	39.425000	0.356743
	39.430000	0.297546
	39.435000	0.317278
	39.440000	0.373187
	39.445000	0.356743
	39.450000	0.297546
	39.455000	0.313990
	39.460000	0.376475
	39.465000	0.356743
	39.470000	0.304124
	39.475000	0.313990
	39.480000	0.373187
	39.485000	0.356743
	39.490000	0.297546
	39.495000	0.317278
	39.500000	0.376475
	39.505000	0.356743
	39.510000	0.300835
	39.515000	0.320567
	39.520000	0.369898
	39.525000	0.356743
	39.530000	0.300835
	39.535000	0.320567
	39.540000	0.369898
	39.545000	0.353454
	39.550000	0.294257
	39.555000	0.317278
	39.560000	0.373187
	39.565000	0.353454
	39.570000	0.300835
	39.575000	0.313990
	39.580000	0.369898
	39.585000	0.356743
	39.590000	0.294257
	39.595000	0.313990
	39.600000	0.373187
	39.605000	0.356743
	39.610000	0.297546
	39.615000	0.313990
	39.620000	0.369898
	39.625000	0.346877
	39.630000	0.297546
	39.635000	0.320567
	39.640000	0.369898
	39.645000	0.350166
	39.650000	0.297546
	39.655000	0.313990
	39.660000	0.366609
	39.665000	0.353454
	39.670000	0.294257
	39.675000	0.313990
	39.680000	0.369898
	39.685000	0.353454
	39.690000	0.297546
	39.695000	0.317278
	39.700000	0.369898
	39.705000	0.350166
	39.710000	0.297546
	39.715000	0.317278
	39.720000	0.369898
	39.725000	0.350166
	39.730000	0.294257
	39.735000	0.320567
	39.740000	0.369898
	39.745000	0.353454
	39.750000	0.294257
	39.755000	0.313990
	39.760000	0.369898
	39.765000	0.356743
	39.770000	0.297546
	39.775000	0.313990
	39.780000	0.369898
	39.785000	0.350166
	39.790000	0.297546
	39.795000	0.313990
	39.800000	0.373187
	39.805000	0.353454
	39.810000	0.297546
	39.815000	0.313990
	39.820000	0.373187
	39.825000	0.353454
	39.830000	0.297546
	39.835000	0.320567
	39.840000	0.376475
	39.845000	0.353454
	39.850000	0.297546
	39.855000	0.317278
	39.860000	0.369898
	39.865000	0.353454
	39.870000	0.294257
	39.875000	0.323856
	39.880000	0.376475
	39.885000	0.353454
	39.890000	0.297546
	39.895000	0.320567
	39.900000	0.376475
	39.905000	0.350166
	39.910000	0.300835
	39.915000	0.320567
	39.920000	0.369898
	39.925000	0.353454
	39.930000	0.297546
	39.935000	0.317278
	39.940000	0.376475
	39.945000	0.356743
	39.950000	0.297546
	39.955000	0.320567
	39.960000	0.373187
	39.965000	0.353454
	39.970000	0.300835
	39.975000	0.320567
	39.980000	0.376475
	39.985000	0.356743
	39.990000	0.300835
	39.995000	0.323856
	40.000000	0.376475
	40.005000	0.356743
	40.010000	0.297546
	40.015000	0.320567
	40.020000	0.376475
	40.025000	0.356743
	40.030000	0.297546
	40.035000	0.320567
	40.040000	0.376475
	40.045000	0.356743
	40.050000	0.300835
	40.055000	0.317278
	40.060000	0.376475
	40.065000	0.360032
	40.070000	0.297546
	40.075000	0.320567
	40.080000	0.376475
	40.085000	0.353454
	40.090000	0.300835
	40.095000	0.323856
	40.100000	0.379764
	40.105000	0.356743
	40.110000	0.297546
	40.115000	0.327145
	40.120000	0.376475
	40.125000	0.353454
	40.130000	0.304124
	40.135000	0.327145
	40.140000	0.376475
	40.145000	0.350166
	40.150000	0.300835
	40.155000	0.323856
	40.160000	0.376475
	40.165000	0.353454
	40.170000	0.307412
	40.175000	0.327145
	40.180000	0.376475
	40.185000	0.356743
	40.190000	0.300835
	40.195000	0.327145
	40.200000	0.379764
	40.205000	0.360032
	40.210000	0.304124
	40.215000	0.323856
	40.220000	0.379764
	40.225000	0.356743
	40.230000	0.304124
	40.235000	0.327145
	40.240000	0.383053
	40.245000	0.356743
	40.250000	0.304124
	40.255000	0.323856
	40.260000	0.379764
	40.265000	0.353454
	40.270000	0.304124
	40.275000	0.327145
	40.280000	0.383053
	40.285000	0.363321
	40.290000	0.304124
	40.295000	0.327145
	40.300000	0.383053
	40.305000	0.360032
	40.310000	0.304124
	40.315000	0.330433
	40.320000	0.383053
	40.325000	0.363321
	40.330000	0.307412
	40.335000	0.327145
	40.340000	0.383053
	40.345000	0.360032
	40.350000	0.310701
	40.355000	0.330433
	40.360000	0.383053
	40.365000	0.360032
	40.370000	0.307412
	40.375000	0.330433
	40.380000	0.383053
	40.385000	0.360032
	40.390000	0.307412
	40.395000	0.327145
	40.400000	0.386342
	40.405000	0.363321
	40.410000	0.310701
	40.415000	0.327145
	40.420000	0.386342
	40.425000	0.356743
	40.430000	0.304124
	40.435000	0.337011
	40.440000	0.383053
	40.445000	0.360032
	40.450000	0.304124
	40.455000	0.330433
	40.460000	0.379764
	40.465000	0.363321
	40.470000	0.304124
	40.475000	0.330433
	40.480000	0.386342
	40.485000	0.360032
	40.490000	0.304124
	40.495000	0.330433
	40.500000	0.379764
	40.505000	0.360032
	40.510000	0.310701
	40.515000	0.333722
	40.520000	0.383053
	40.525000	0.360032
	40.530000	0.307412
	40.535000	0.333722
	40.540000	0.383053
	40.545000	0.353454
	40.550000	0.304124
	40.555000	0.327145
	40.560000	0.383053
	40.565000	0.356743
	40.570000	0.304124
	40.575000	0.330433
	40.580000	0.383053
	40.585000	0.360032
	40.590000	0.300835
	40.595000	0.327145
	40.600000	0.379764
	40.605000	0.356743
	40.610000	0.304124
	40.615000	0.330433
	40.620000	0.376475
	40.625000	0.353454
	40.630000	0.304124
	40.635000	0.327145
	40.640000	0.379764
	40.645000	0.360032
	40.650000	0.304124
	40.655000	0.330433
	40.660000	0.383053
	40.665000	0.356743
	40.670000	0.300835
	40.675000	0.327145
	40.680000	0.383053
	40.685000	0.350166
	40.690000	0.300835
	40.695000	0.327145
	40.700000	0.383053
	40.705000	0.356743
	40.710000	0.304124
	40.715000	0.333722
	40.720000	0.379764
	40.725000	0.353454
	40.730000	0.307412
	40.735000	0.327145
	40.740000	0.386342
	40.745000	0.356743
	40.750000	0.304124
	40.755000	0.327145
	40.760000	0.383053
	40.765000	0.356743
	40.770000	0.304124
	40.775000	0.337011
	40.780000	0.386342
	40.785000	0.360032
	40.790000	0.304124
	40.795000	0.333722
	40.800000	0.383053
	40.805000	0.356743
	40.810000	0.300835
	40.815000	0.337011
	40.820000	0.386342
	40.825000	0.360032
	40.830000	0.304124
	40.835000	0.333722
	40.840000	0.383053
	40.845000	0.356743
	40.850000	0.300835
	40.855000	0.330433
	40.860000	0.383053
	40.865000	0.356743
	40.870000	0.304124
	40.875000	0.333722
	40.880000	0.386342
	40.885000	0.356743
	40.890000	0.304124
	40.895000	0.330433
	40.900000	0.383053
	40.905000	0.356743
	40.910000	0.307412
	40.915000	0.330433
	40.920000	0.383053
	40.925000	0.356743
	40.930000	0.300835
	40.935000	0.333722
	40.940000	0.389630
	40.945000	0.356743
	40.950000	0.304124
	40.955000	0.333722
	40.960000	0.383053
	40.965000	0.353454
	40.970000	0.307412
	40.975000	0.330433
	40.980000	0.383053
	40.985000	0.360032
	40.990000	0.304124
	40.995000	0.327145
	41.000000	0.383053
	41.005000	0.353454
	41.010000	0.304124
	41.015000	0.333722
	41.020000	0.383053
	41.025000	0.346877
	41.030000	0.300835
	41.035000	0.327145
	41.040000	0.379764
	41.045000	0.356743
	41.050000	0.304124
	41.055000	0.330433
	41.060000	0.383053
	41.065000	0.356743
	41.070000	0.300835
	41.075000	0.330433
	41.080000	0.383053
	41.085000	0.353454
	41.090000	0.307412
	41.095000	0.327145
	41.100000	0.386342
	41.105000	0.356743
	41.110000	0.304124
	41.115000	0.330433
	41.120000	0.383053
	41.125000	0.350166
	41.130000	0.300835
	41.135000	0.330433
	41.140000	0.376475
	41.145000	0.353454
	41.150000	0.304124
	41.155000	0.330433
	41.160000	0.379764
	41.165000	0.350166
	41.170000	0.300835
	41.175000	0.327145
	41.180000	0.379764
	41.185000	0.353454
	41.190000	0.304124
	41.195000	0.333722
	41.200000	0.379764
	41.205000	0.353454
	41.210000	0.304124
	41.215000	0.333722
	41.220000	0.383053
	41.225000	0.353454
	41.230000	0.300835
	41.235000	0.333722
	41.240000	0.379764
	41.245000	0.350166
	41.250000	0.300835
	41.255000	0.333722
	41.260000	0.383053
	41.265000	0.353454
	41.270000	0.304124
	41.275000	0.327145
	41.280000	0.379764
	41.285000	0.353454
	41.290000	0.300835
	41.295000	0.330433
	41.300000	0.379764
	41.305000	0.346877
	41.310000	0.300835
	41.315000	0.327145
	41.320000	0.379764
	41.325000	0.346877
	41.330000	0.300835
	41.335000	0.330433
	41.340000	0.379764
	41.345000	0.346877
	41.350000	0.300835
	41.355000	0.330433
	41.360000	0.379764
	41.365000	0.346877
	41.370000	0.300835
	41.375000	0.330433
	41.380000	0.379764
	41.385000	0.343588
	41.390000	0.300835
	41.395000	0.330433
	41.400000	0.373187
	41.405000	0.346877
	41.410000	0.297546
	41.415000	0.327145
	41.420000	0.373187
	41.425000	0.346877
	41.430000	0.300835
	41.435000	0.330433
	41.440000	0.373187
	41.445000	0.350166
	41.450000	0.297546
	41.455000	0.327145
	41.460000	0.379764
	41.465000	0.346877
	41.470000	0.294257
	41.475000	0.327145
	41.480000	0.376475
	41.485000	0.343588
	41.490000	0.297546
	41.495000	0.330433
	41.500000	0.376475
	41.505000	0.353454
	41.510000	0.300835
	41.515000	0.327145
	41.520000	0.379764
	41.525000	0.350166
	41.530000	0.297546
	41.535000	0.330433
	41.540000	0.383053
	41.545000	0.343588
	41.550000	0.290969
	41.555000	0.330433
	41.560000	0.379764
	41.565000	0.346877
	41.570000	0.300835
	41.575000	0.333722
	41.580000	0.379764
	41.585000	0.350166
	41.590000	0.297546
	41.595000	0.330433
	41.600000	0.379764
	41.605000	0.350166
	41.610000	0.297546
	41.615000	0.330433
	41.620000	0.383053
	41.625000	0.353454
	41.630000	0.300835
	41.635000	0.333722
	41.640000	0.379764
	41.645000	0.353454
	41.650000	0.297546
	41.655000	0.327145
	41.660000	0.379764
	41.665000	0.353454
	41.670000	0.297546
	41.675000	0.333722
	41.680000	0.379764
	41.685000	0.350166
	41.690000	0.297546
	41.695000	0.333722
	41.700000	0.376475
	41.705000	0.346877
	41.710000	0.297546
	41.715000	0.333722
	41.720000	0.379764
	41.725000	0.343588
	41.730000	0.300835
	41.735000	0.330433
	41.740000	0.379764
	41.745000	0.346877
	41.750000	0.300835
	41.755000	0.330433
	41.760000	0.379764
	41.765000	0.350166
	41.770000	0.297546
	41.775000	0.330433
	41.780000	0.379764
	41.785000	0.350166
	41.790000	0.297546
	41.795000	0.333722
	41.800000	0.379764
	41.805000	0.346877
	41.810000	0.307412
	41.815000	0.330433
	41.820000	0.383053
	41.825000	0.350166
	41.830000	0.300835
	41.835000	0.327145
	41.840000	0.379764
	41.845000	0.350166
	41.850000	0.300835
	41.855000	0.330433
	41.860000	0.386342
	41.865000	0.350166
	41.870000	0.300835
	41.875000	0.333722
	41.880000	0.383053
	41.885000	0.346877
	41.890000	0.300835
	41.895000	0.330433
	41.900000	0.376475
	41.905000	0.346877
	41.910000	0.300835
	41.915000	0.337011
	41.920000	0.383053
	41.925000	0.346877
	41.930000	0.300835
	41.935000	0.333722
	41.940000	0.379764
	41.945000	0.346877
	41.950000	0.300835
	41.955000	0.330433
	41.960000	0.386342
	41.965000	0.350166
	41.970000	0.297546
	41.975000	0.330433
	41.980000	0.379764
	41.985000	0.350166
	41.990000	0.297546
	41.995000	0.333722
	42.000000	0.383053
	42.005000	0.346877
	42.010000	0.300835
	42.015000	0.330433
	42.020000	0.379764
	42.025000	0.346877
	42.030000	0.297546
	42.035000	0.330433
	42.040000	0.379764
	42.045000	0.346877
	42.050000	0.297546
	42.055000	0.330433
	42.060000	0.379764
	42.065000	0.343588
	42.070000	0.297546
	42.075000	0.330433
	42.080000	0.379764
	42.085000	0.346877
	42.090000	0.297546
	42.095000	0.333722
	42.100000	0.379764
	42.105000	0.346877
	42.110000	0.300835
	42.115000	0.330433
	42.120000	0.379764
	42.125000	0.350166
	42.130000	0.300835
	42.135000	0.333722
	42.140000	0.379764
	42.145000	0.350166
	42.150000	0.300835
	42.155000	0.337011
	42.160000	0.379764
	42.165000	0.346877
	42.170000	0.300835
	42.175000	0.333722
	42.180000	0.386342
	42.185000	0.346877
	42.190000	0.304124
	42.195000	0.333722
	42.200000	0.386342
	42.205000	0.346877
	42.210000	0.297546
	42.215000	0.333722
	42.220000	0.383053
	42.225000	0.343588
	42.230000	0.300835
	42.235000	0.333722
	42.240000	0.383053
	42.245000	0.346877
	42.250000	0.297546
	42.255000	0.333722
	42.260000	0.379764
	42.265000	0.346877
	42.270000	0.300835
	42.275000	0.333722
	42.280000	0.383053
	42.285000	0.343588
	42.290000	0.300835
	42.295000	0.330433
	42.300000	0.376475
	42.305000	0.343588
	42.310000	0.300835
	42.315000	0.333722
	42.320000	0.383053
	42.325000	0.350166
	42.330000	0.297546
	42.335000	0.333722
	42.340000	0.386342
	42.345000	0.346877
	42.350000	0.297546
	42.355000	0.333722
	42.360000	0.379764
	42.365000	0.346877
	42.370000	0.304124
	42.375000	0.333722
	42.380000	0.386342
	42.385000	0.346877
	42.390000	0.297546
	42.395000	0.337011
	42.400000	0.379764
	42.405000	0.346877
	42.410000	0.294257
	42.415000	0.333722
	42.420000	0.383053
	42.425000	0.343588
	42.430000	0.300835
	42.435000	0.333722
	42.440000	0.379764
	42.445000	0.343588
	42.450000	0.300835
	42.455000	0.337011
	42.460000	0.379764
	42.465000	0.343588
	42.470000	0.300835
	42.475000	0.337011
	42.480000	0.379764
	42.485000	0.340299
	42.490000	0.297546
	42.495000	0.340299
	42.500000	0.383053
	42.505000	0.346877
	42.510000	0.297546
	42.515000	0.333722
	42.520000	0.379764
	42.525000	0.346877
	42.530000	0.300835
	42.535000	0.333722
	42.540000	0.383053
	42.545000	0.346877
	42.550000	0.304124
	42.555000	0.333722
	42.560000	0.386342
	42.565000	0.343588
	42.570000	0.300835
	42.575000	0.340299
	42.580000	0.379764
	42.585000	0.346877
	42.590000	0.300835
	42.595000	0.340299
	42.600000	0.379764
	42.605000	0.343588
	42.610000	0.297546
	42.615000	0.337011
	42.620000	0.386342
	42.625000	0.346877
	42.630000	0.300835
	42.635000	0.337011
	42.640000	0.383053
	42.645000	0.343588
	42.650000	0.300835
	42.655000	0.340299
	42.660000	0.376475
	42.665000	0.343588
	42.670000	0.297546
	42.675000	0.340299
	42.680000	0.383053
	42.685000	0.343588
	42.690000	0.300835
	42.695000	0.337011
	42.700000	0.383053
	42.705000	0.346877
	42.710000	0.297546
	42.715000	0.337011
	42.720000	0.379764
	42.725000	0.343588
	42.730000	0.304124
	42.735000	0.337011
	42.740000	0.379764
	42.745000	0.346877
	42.750000	0.300835
	42.755000	0.337011
	42.760000	0.383053
	42.765000	0.346877
	42.770000	0.300835
	42.775000	0.337011
	42.780000	0.383053
	42.785000	0.346877
	42.790000	0.300835
	42.795000	0.340299
	42.800000	0.383053
	42.805000	0.346877
	42.810000	0.300835
	42.815000	0.337011
	42.820000	0.383053
	42.825000	0.346877
	42.830000	0.294257
	42.835000	0.333722
	42.840000	0.383053
	42.845000	0.343588
	42.850000	0.300835
	42.855000	0.337011
	42.860000	0.379764
	42.865000	0.346877
	42.870000	0.297546
	42.875000	0.340299
	42.880000	0.379764
	42.885000	0.346877
	42.890000	0.297546
	42.895000	0.340299
	42.900000	0.383053
	42.905000	0.343588
	42.910000	0.300835
	42.915000	0.333722
	42.920000	0.383053
	42.925000	0.346877
	42.930000	0.300835
	42.935000	0.340299
	42.940000	0.386342
	42.945000	0.346877
	42.950000	0.300835
	42.955000	0.340299
	42.960000	0.386342
	42.965000	0.343588
	42.970000	0.297546
	42.975000	0.343588
	42.980000	0.383053
	42.985000	0.343588
	42.990000	0.300835
	42.995000	0.343588
	43.000000	0.379764
	43.005000	0.343588
	43.010000	0.300835
	43.015000	0.337011
	43.020000	0.383053
	43.025000	0.340299
	43.030000	0.304124
	43.035000	0.340299
	43.040000	0.379764
	43.045000	0.340299
	43.050000	0.297546
	43.055000	0.337011
	43.060000	0.379764
	43.065000	0.337011
	43.070000	0.297546
	43.075000	0.340299
	43.080000	0.383053
	43.085000	0.340299
	43.090000	0.297546
	43.095000	0.340299
	43.100000	0.386342
	43.105000	0.340299
	43.110000	0.297546
	43.115000	0.340299
	43.120000	0.383053
	43.125000	0.343588
	43.130000	0.297546
	43.135000	0.337011
	43.140000	0.379764
	43.145000	0.340299
	43.150000	0.297546
	43.155000	0.340299
	43.160000	0.383053
	43.165000	0.343588
	43.170000	0.300835
	43.175000	0.340299
	43.180000	0.383053
	43.185000	0.343588
	43.190000	0.294257
	43.195000	0.333722
	43.200000	0.379764
	43.205000	0.337011
	43.210000	0.300835
	43.215000	0.340299
	43.220000	0.376475
	43.225000	0.340299
	43.230000	0.297546
	43.235000	0.340299
	43.240000	0.376475
	43.245000	0.340299
	43.250000	0.300835
	43.255000	0.340299
	43.260000	0.376475
	43.265000	0.340299
	43.270000	0.290969
	43.275000	0.340299
	43.280000	0.376475
	43.285000	0.340299
	43.290000	0.297546
	43.295000	0.337011
	43.300000	0.379764
	43.305000	0.340299
	43.310000	0.297546
	43.315000	0.333722
	43.320000	0.379764
	43.325000	0.343588
	43.330000	0.297546
	43.335000	0.340299
	43.340000	0.383053
	43.345000	0.340299
	43.350000	0.297546
	43.355000	0.340299
	43.360000	0.379764
	43.365000	0.337011
	43.370000	0.294257
	43.375000	0.337011
	43.380000	0.376475
	43.385000	0.337011
	43.390000	0.297546
	43.395000	0.333722
	43.400000	0.376475
	43.405000	0.337011
	43.410000	0.294257
	43.415000	0.337011
	43.420000	0.376475
	43.425000	0.337011
	43.430000	0.294257
	43.435000	0.333722
	43.440000	0.376475
	43.445000	0.337011
	43.450000	0.297546
	43.455000	0.337011
	43.460000	0.376475
	43.465000	0.340299
	43.470000	0.294257
	43.475000	0.337011
	43.480000	0.376475
	43.485000	0.340299
	43.490000	0.290969
	43.495000	0.340299
	43.500000	0.376475
	43.505000	0.333722
	43.510000	0.294257
	43.515000	0.333722
	43.520000	0.379764
	43.525000	0.333722
	43.530000	0.294257
	43.535000	0.337011
	43.540000	0.376475
	43.545000	0.333722
	43.550000	0.294257
	43.555000	0.333722
	43.560000	0.369898
	43.565000	0.333722
	43.570000	0.297546
	43.575000	0.333722
	43.580000	0.379764
	43.585000	0.333722
	43.590000	0.287680
	43.595000	0.333722
	43.600000	0.379764
	43.605000	0.333722
	43.610000	0.294257
	43.615000	0.333722
	43.620000	0.373187
	43.625000	0.333722
	43.630000	0.290969
	43.635000	0.333722
	43.640000	0.379764
	43.645000	0.333722
	43.650000	0.294257
	43.655000	0.333722
	43.660000	0.379764
	43.665000	0.337011
	43.670000	0.294257
	43.675000	0.333722
	43.680000	0.376475
	43.685000	0.333722
	43.690000	0.297546
	43.695000	0.333722
	43.700000	0.376475
	43.705000	0.333722
	43.710000	0.294257
	43.715000	0.333722
	43.720000	0.376475
	43.725000	0.333722
	43.730000	0.294257
	43.735000	0.333722
	43.740000	0.376475
	43.745000	0.327145
	43.750000	0.294257
	43.755000	0.333722
	43.760000	0.373187
	43.765000	0.330433
	43.770000	0.290969
	43.775000	0.337011
	43.780000	0.373187
	43.785000	0.330433
	43.790000	0.294257
	43.795000	0.330433
	43.800000	0.369898
	43.805000	0.333722
	43.810000	0.294257
	43.815000	0.337011
	43.820000	0.376475
	43.825000	0.337011
	43.830000	0.297546
	43.835000	0.340299
	43.840000	0.379764
	43.845000	0.340299
	43.850000	0.300835
	43.855000	0.346877
	43.860000	0.389630
	43.865000	0.346877
	43.870000	0.313990
	43.875000	0.360032
	43.880000	0.399496
	43.885000	0.360032
	43.890000	0.320567
	43.895000	0.366609
	43.900000	0.402785
	43.905000	0.366609
	43.910000	0.330433
	43.915000	0.373187
	43.920000	0.412651
	43.925000	0.376475
	43.930000	0.340299
	43.935000	0.379764
	43.940000	0.415940
	43.945000	0.379764
	43.950000	0.343588
	43.955000	0.386342
	43.960000	0.419229
	43.965000	0.386342
	43.970000	0.353454
	43.975000	0.392919
	43.980000	0.432384
	43.985000	0.399496
	43.990000	0.363321
	43.995000	0.402785
	44.000000	0.442250
	44.005000	0.399496
	44.010000	0.366609
	44.015000	0.406074
	44.020000	0.442250
	44.025000	0.402785
	44.030000	0.366609
	44.035000	0.406074
	44.040000	0.448827
	44.045000	0.406074
	44.050000	0.369898
	44.055000	0.409363
	44.060000	0.438961
	44.065000	0.409363
	44.070000	0.369898
	44.075000	0.419229
	44.080000	0.448827
	44.085000	0.409363
	44.090000	0.373187
	44.095000	0.412651
	44.100000	0.448827
	44.105000	0.406074
	44.110000	0.376475
	44.115000	0.415940
	44.120000	0.442250
	44.125000	0.402785
	44.130000	0.366609
	44.135000	0.406074
	44.140000	0.438961
	44.145000	0.396208
	44.150000	0.363321
	44.155000	0.396208
	44.160000	0.432384
	44.165000	0.392919
	44.170000	0.356743
	44.175000	0.389630
	44.180000	0.432384
	44.185000	0.389630
	44.190000	0.356743
	44.195000	0.396208
	44.200000	0.429095
	44.205000	0.392919
	44.210000	0.356743
	44.215000	0.396208
	44.220000	0.429095
	44.225000	0.392919
	44.230000	0.360032
	44.235000	0.399496
	44.240000	0.432384
	44.245000	0.399496
	44.250000	0.353454
	44.255000	0.399496
	44.260000	0.432384
	44.265000	0.392919
	44.270000	0.360032
	44.275000	0.396208
	44.280000	0.429095
	44.285000	0.389630
	44.290000	0.356743
	44.295000	0.396208
	44.300000	0.429095
	44.305000	0.386342
	44.310000	0.356743
	44.315000	0.392919
	44.320000	0.419229
	44.325000	0.383053
	44.330000	0.346877
	44.335000	0.386342
	44.340000	0.419229
	44.345000	0.383053
	44.350000	0.350166
	44.355000	0.386342
	44.360000	0.419229
	44.365000	0.376475
	44.370000	0.343588
	44.375000	0.376475
	44.380000	0.409363
	44.385000	0.373187
	44.390000	0.340299
	44.395000	0.379764
	44.400000	0.406074
	44.405000	0.366609
	44.410000	0.333722
	44.415000	0.373187
	44.420000	0.406074
	44.425000	0.366609
	44.430000	0.327145
	44.435000	0.366609
	44.440000	0.399496
	44.445000	0.356743
	44.450000	0.323856
	44.455000	0.363321
	44.460000	0.396208
	44.465000	0.353454
	44.470000	0.320567
	44.475000	0.360032
	44.480000	0.392919
	44.485000	0.343588
	44.490000	0.313990
	44.495000	0.353454
	44.500000	0.386342
	44.505000	0.346877
	44.510000	0.304124
	44.515000	0.346877
	44.520000	0.379764
	44.525000	0.337011
	44.530000	0.304124
	44.535000	0.346877
	44.540000	0.376475
	44.545000	0.330433
	44.550000	0.297546
	44.555000	0.343588
	44.560000	0.373187
	44.565000	0.330433
	44.570000	0.297546
	44.575000	0.337011
	44.580000	0.373187
	44.585000	0.330433
	44.590000	0.297546
	44.595000	0.340299
	44.600000	0.369898
	44.605000	0.327145
	44.610000	0.290969
	44.615000	0.337011
	44.620000	0.366609
	44.625000	0.320567
	44.630000	0.284391
	44.635000	0.323856
	44.640000	0.360032
	44.645000	0.317278
	44.650000	0.281102
	44.655000	0.323856
	44.660000	0.363321
	44.665000	0.313990
	44.670000	0.277814
	44.675000	0.323856
	44.680000	0.363321
	44.685000	0.307412
	44.690000	0.277814
	44.695000	0.323856
	44.700000	0.360032
	44.705000	0.310701
	44.710000	0.277814
	44.715000	0.320567
	44.720000	0.356743
	44.725000	0.307412
	44.730000	0.277814
	44.735000	0.323856
	44.740000	0.356743
	44.745000	0.310701
	44.750000	0.281102
	44.755000	0.327145
	44.760000	0.356743
	44.765000	0.317278
	44.770000	0.281102
	44.775000	0.327145
	44.780000	0.353454
	44.785000	0.317278
	44.790000	0.284391
	44.795000	0.323856
	44.800000	0.356743
	44.805000	0.317278
	44.810000	0.284391
	44.815000	0.330433
	44.820000	0.356743
	44.825000	0.313990
	44.830000	0.284391
	44.835000	0.323856
	44.840000	0.363321
	44.845000	0.313990
	44.850000	0.281102
	44.855000	0.327145
	44.860000	0.360032
	44.865000	0.317278
	44.870000	0.281102
	44.875000	0.330433
	44.880000	0.360032
	44.885000	0.317278
	44.890000	0.281102
	44.895000	0.327145
	44.900000	0.363321
	44.905000	0.317278
	44.910000	0.287680
	44.915000	0.327145
	44.920000	0.366609
	44.925000	0.313990
	44.930000	0.281102
	44.935000	0.327145
	44.940000	0.366609
	44.945000	0.313990
	44.950000	0.281102
	44.955000	0.327145
	44.960000	0.363321
	44.965000	0.313990
	44.970000	0.281102
	44.975000	0.330433
	44.980000	0.366609
	44.985000	0.317278
	44.990000	0.281102
	44.995000	0.330433
	45.000000	0.363321
	45.005000	0.320567
	45.010000	0.284391
	45.015000	0.327145
	45.020000	0.363321
	45.025000	0.317278
	45.030000	0.281102
	45.035000	0.330433
	45.040000	0.363321
	45.045000	0.313990
	45.050000	0.284391
	45.055000	0.330433
	45.060000	0.360032
	45.065000	0.317278
	45.070000	0.287680
	45.075000	0.333722
	45.080000	0.366609
	45.085000	0.317278
	45.090000	0.284391
	45.095000	0.333722
	45.100000	0.363321
	45.105000	0.320567
	45.110000	0.284391
	45.115000	0.333722
	45.120000	0.369898
	45.125000	0.317278
	45.130000	0.284391
	45.135000	0.333722
	45.140000	0.366609
	45.145000	0.317278
	45.150000	0.287680
	45.155000	0.337011
	45.160000	0.373187
	45.165000	0.323856
	45.170000	0.287680
	45.175000	0.337011
	45.180000	0.369898
	45.185000	0.320567
	45.190000	0.287680
	45.195000	0.333722
	45.200000	0.363321
	45.205000	0.327145
	45.210000	0.290969
	45.215000	0.337011
	45.220000	0.373187
	45.225000	0.320567
	45.230000	0.287680
	45.235000	0.337011
	45.240000	0.373187
	45.245000	0.320567
	45.250000	0.290969
	45.255000	0.337011
	45.260000	0.369898
	45.265000	0.327145
	45.270000	0.294257
	45.275000	0.340299
	45.280000	0.373187
	45.285000	0.320567
	45.290000	0.294257
	45.295000	0.340299
	45.300000	0.373187
	45.305000	0.327145
	45.310000	0.294257
	45.315000	0.343588
	45.320000	0.373187
	45.325000	0.323856
	45.330000	0.294257
	45.335000	0.343588
	45.340000	0.379764
	45.345000	0.323856
	45.350000	0.294257
	45.355000	0.343588
	45.360000	0.373187
	45.365000	0.327145
	45.370000	0.290969
	45.375000	0.340299
	45.380000	0.373187
	45.385000	0.327145
	45.390000	0.294257
	45.395000	0.346877
	45.400000	0.379764
	45.405000	0.327145
	45.410000	0.294257
	45.415000	0.346877
	45.420000	0.376475
	45.425000	0.330433
	45.430000	0.297546
	45.435000	0.343588
	45.440000	0.379764
	45.445000	0.327145
	45.450000	0.290969
	45.455000	0.346877
	45.460000	0.369898
	45.465000	0.327145
	45.470000	0.294257
	45.475000	0.340299
	45.480000	0.376475
	45.485000	0.333722
	45.490000	0.297546
	45.495000	0.346877
	45.500000	0.379764
	45.505000	0.327145
	45.510000	0.297546
	45.515000	0.346877
	45.520000	0.383053
	45.525000	0.330433
	45.530000	0.294257
	45.535000	0.346877
	45.540000	0.379764
	45.545000	0.330433
	45.550000	0.297546
	45.555000	0.346877
	45.560000	0.379764
	45.565000	0.327145
	45.570000	0.294257
	45.575000	0.350166
	45.580000	0.376475
	45.585000	0.333722
	45.590000	0.297546
	45.595000	0.346877
	45.600000	0.379764
	45.605000	0.330433
	45.610000	0.304124
	45.615000	0.346877
	45.620000	0.376475
	45.625000	0.330433
	45.630000	0.297546
	45.635000	0.350166
	45.640000	0.383053
	45.645000	0.327145
	45.650000	0.297546
	45.655000	0.350166
	45.660000	0.379764
	45.665000	0.333722
	45.670000	0.304124
	45.675000	0.350166
	45.680000	0.383053
	45.685000	0.333722
	45.690000	0.300835
	45.695000	0.346877
	45.700000	0.379764
	45.705000	0.337011
	45.710000	0.300835
	45.715000	0.350166
	45.720000	0.379764
	45.725000	0.333722
	45.730000	0.304124
	45.735000	0.353454
	45.740000	0.383053
	45.745000	0.333722
	45.750000	0.300835
	45.755000	0.353454
	45.760000	0.383053
	45.765000	0.333722
	45.770000	0.300835
	45.775000	0.350166
	45.780000	0.383053
	45.785000	0.333722
	45.790000	0.300835
	45.795000	0.350166
	45.800000	0.383053
	45.805000	0.330433
	45.810000	0.300835
	45.815000	0.350166
	45.820000	0.383053
	45.825000	0.333722
	45.830000	0.304124
	45.835000	0.353454
	45.840000	0.383053
	45.845000	0.330433
	45.850000	0.300835
	45.855000	0.353454
	45.860000	0.383053
	45.865000	0.330433
	45.870000	0.300835
	45.875000	0.350166
	45.880000	0.383053
	45.885000	0.327145
	45.890000	0.304124
	45.895000	0.350166
	45.900000	0.383053
	45.905000	0.333722
	45.910000	0.304124
	45.915000	0.353454
	45.920000	0.379764
	45.925000	0.330433
	45.930000	0.297546
	45.935000	0.353454
	45.940000	0.386342
	45.945000	0.333722
	45.950000	0.300835
	45.955000	0.353454
	45.960000	0.386342
	45.965000	0.330433
	45.970000	0.304124
	45.975000	0.356743
	45.980000	0.386342
	45.985000	0.337011
	45.990000	0.300835
	45.995000	0.350166
	46.000000	0.383053
	46.005000	0.330433
	46.010000	0.304124
	46.015000	0.353454
	46.020000	0.386342
	46.025000	0.333722
	46.030000	0.300835
	46.035000	0.353454
	46.040000	0.383053
	46.045000	0.333722
	46.050000	0.304124
	46.055000	0.350166
	46.060000	0.383053
	46.065000	0.330433
	46.070000	0.300835
	46.075000	0.353454
	46.080000	0.386342
	46.085000	0.333722
	46.090000	0.304124
	46.095000	0.360032
	46.100000	0.389630
	46.105000	0.327145
	46.110000	0.304124
	46.115000	0.353454
	46.120000	0.379764
	46.125000	0.333722
	46.130000	0.304124
	46.135000	0.353454
	46.140000	0.383053
	46.145000	0.333722
	46.150000	0.304124
	46.155000	0.353454
	46.160000	0.386342
	46.165000	0.330433
	46.170000	0.300835
	46.175000	0.350166
	46.180000	0.386342
	46.185000	0.333722
	46.190000	0.300835
	46.195000	0.353454
	46.200000	0.386342
	46.205000	0.333722
	46.210000	0.304124
	46.215000	0.353454
	46.220000	0.386342
	46.225000	0.337011
	46.230000	0.307412
	46.235000	0.353454
	46.240000	0.389630
	46.245000	0.333722
	46.250000	0.300835
	46.255000	0.356743
	46.260000	0.386342
	46.265000	0.333722
	46.270000	0.304124
	46.275000	0.353454
	46.280000	0.386342
	46.285000	0.333722
	46.290000	0.300835
	46.295000	0.353454
	46.300000	0.383053
	46.305000	0.337011
	46.310000	0.304124
	46.315000	0.356743
	46.320000	0.379764
	46.325000	0.330433
	46.330000	0.307412
	46.335000	0.353454
	46.340000	0.386342
	46.345000	0.333722
	46.350000	0.300835
	46.355000	0.353454
	46.360000	0.386342
	46.365000	0.330433
	46.370000	0.304124
	46.375000	0.353454
	46.380000	0.383053
	46.385000	0.330433
	46.390000	0.300835
	46.395000	0.356743
	46.400000	0.383053
	46.405000	0.333722
	46.410000	0.300835
	46.415000	0.356743
	46.420000	0.386342
	46.425000	0.330433
	46.430000	0.300835
	46.435000	0.353454
	46.440000	0.386342
	46.445000	0.330433
	46.450000	0.304124
	46.455000	0.356743
	46.460000	0.379764
	46.465000	0.330433
	46.470000	0.304124
	46.475000	0.356743
	46.480000	0.379764
	46.485000	0.333722
	46.490000	0.304124
	46.495000	0.353454
	46.500000	0.386342
	46.505000	0.330433
	46.510000	0.304124
	46.515000	0.356743
	46.520000	0.383053
	46.525000	0.330433
	46.530000	0.297546
	46.535000	0.353454
	46.540000	0.386342
	46.545000	0.333722
	46.550000	0.300835
	46.555000	0.353454
	46.560000	0.383053
	46.565000	0.333722
	46.570000	0.304124
	46.575000	0.353454
	46.580000	0.383053
	46.585000	0.333722
	46.590000	0.310701
	46.595000	0.353454
	46.600000	0.383053
	46.605000	0.333722
	46.610000	0.304124
	46.615000	0.360032
	46.620000	0.386342
	46.625000	0.330433
	46.630000	0.304124
	46.635000	0.360032
	46.640000	0.386342
	46.645000	0.327145
	46.650000	0.307412
	46.655000	0.356743
	46.660000	0.386342
	46.665000	0.330433
	46.670000	0.310701
	46.675000	0.356743
	46.680000	0.383053
	46.685000	0.333722
	46.690000	0.304124
	46.695000	0.353454
	46.700000	0.383053
	46.705000	0.333722
	46.710000	0.304124
	46.715000	0.356743
	46.720000	0.383053
	46.725000	0.330433
	46.730000	0.307412
	46.735000	0.353454
	46.740000	0.383053
	46.745000	0.333722
	46.750000	0.307412
	46.755000	0.360032
	46.760000	0.379764
	46.765000	0.333722
	46.770000	0.307412
	46.775000	0.356743
	46.780000	0.386342
	46.785000	0.333722
	46.790000	0.300835
	46.795000	0.356743
	46.800000	0.379764
	46.805000	0.330433
	46.810000	0.304124
	46.815000	0.353454
	46.820000	0.379764
	46.825000	0.333722
	46.830000	0.307412
	46.835000	0.353454
	46.840000	0.386342
	46.845000	0.330433
	46.850000	0.307412
	46.855000	0.360032
	46.860000	0.383053
	46.865000	0.330433
	46.870000	0.304124
	46.875000	0.356743
	46.880000	0.383053
	46.885000	0.333722
	46.890000	0.304124
	46.895000	0.360032
	46.900000	0.383053
	46.905000	0.333722
	46.910000	0.304124
	46.915000	0.356743
	46.920000	0.383053
	46.925000	0.333722
	46.930000	0.307412
	46.935000	0.353454
	46.940000	0.386342
	46.945000	0.327145
	46.950000	0.304124
	46.955000	0.353454
	46.960000	0.383053
	46.965000	0.330433
	46.970000	0.307412
	46.975000	0.353454
	46.980000	0.383053
	46.985000	0.327145
	46.990000	0.307412
	46.995000	0.356743
	47.000000	0.379764
	47.005000	0.333722
	47.010000	0.307412
	47.015000	0.356743
	47.020000	0.379764
	47.025000	0.327145
	47.030000	0.297546
	47.035000	0.356743
	47.040000	0.379764
	47.045000	0.330433
	47.050000	0.300835
	47.055000	0.353454
	47.060000	0.383053
	47.065000	0.327145
	47.070000	0.307412
	47.075000	0.353454
	47.080000	0.383053
	47.085000	0.333722
	47.090000	0.304124
	47.095000	0.353454
	47.100000	0.379764
	47.105000	0.327145
	47.110000	0.304124
	47.115000	0.353454
	47.120000	0.386342
	47.125000	0.327145
	47.130000	0.307412
	47.135000	0.356743
	47.140000	0.386342
	47.145000	0.330433
	47.150000	0.304124
	47.155000	0.353454
	47.160000	0.386342
	47.165000	0.330433
	47.170000	0.297546
	47.175000	0.356743
	47.180000	0.383053
	47.185000	0.330433
	47.190000	0.304124
	47.195000	0.356743
	47.200000	0.379764
	47.205000	0.333722
	47.210000	0.307412
	47.215000	0.356743
	47.220000	0.383053
	47.225000	0.327145
	47.230000	0.307412
	47.235000	0.356743
	47.240000	0.379764
	47.245000	0.333722
	47.250000	0.307412
	47.255000	0.356743
	47.260000	0.379764
	47.265000	0.330433
	47.270000	0.304124
	47.275000	0.356743
	47.280000	0.383053
	47.285000	0.327145
