2024/7/11 	 16:04:29 
 This file comes from Vt only measurement 	 1.000000E-1 
 Voltage Sensitivity 	 0.000000E+0 
 Sampling rate 	 200 
 Number of samples per channel 	 -1 
 No filter from Labview 	 	 	 
 	 
 ***End_of_Header*** 
 	 Time 	  Voltage 	 Filtered Voltage 	 
	0.000000	-1.595312
	0.005000	-1.514728
	0.010000	-1.466378
	0.015000	-1.546962
	0.020000	-1.601759
	0.025000	-1.517951
	0.030000	-1.476048
	0.035000	-1.553408
	0.040000	-1.598535
	0.045000	-1.524398
	0.050000	-1.469601
	0.055000	-1.550185
	0.060000	-1.598535
	0.065000	-1.521175
	0.070000	-1.479271
	0.075000	-1.556632
	0.080000	-1.608205
	0.085000	-1.527621
	0.090000	-1.479271
	0.095000	-1.559855
	0.100000	-1.604982
	0.105000	-1.527621
	0.110000	-1.482494
	0.115000	-1.563078
	0.120000	-1.608205
	0.125000	-1.534068
	0.130000	-1.482494
	0.135000	-1.563078
	0.140000	-1.601759
	0.145000	-1.534068
	0.150000	-1.485718
	0.155000	-1.569525
	0.160000	-1.611429
	0.165000	-1.530845
	0.170000	-1.488941
	0.175000	-1.566302
	0.180000	-1.617875
	0.185000	-1.537291
	0.190000	-1.488941
	0.195000	-1.569525
	0.200000	-1.611429
	0.205000	-1.537291
	0.210000	-1.495388
	0.215000	-1.566302
	0.220000	-1.624322
	0.225000	-1.534068
	0.230000	-1.492164
	0.235000	-1.572748
	0.240000	-1.617875
	0.245000	-1.550185
	0.250000	-1.492164
	0.255000	-1.572748
	0.260000	-1.621099
	0.265000	-1.550185
	0.270000	-1.495388
	0.275000	-1.569525
	0.280000	-1.617875
	0.285000	-1.550185
	0.290000	-1.495388
	0.295000	-1.572748
	0.300000	-1.617875
	0.305000	-1.543738
	0.310000	-1.498611
	0.315000	-1.572748
	0.320000	-1.621099
	0.325000	-1.543738
	0.330000	-1.495388
	0.335000	-1.575972
	0.340000	-1.621099
	0.345000	-1.546962
	0.350000	-1.505058
	0.355000	-1.582418
	0.360000	-1.627546
	0.365000	-1.553408
	0.370000	-1.501835
	0.375000	-1.579195
	0.380000	-1.630769
	0.385000	-1.559855
	0.390000	-1.505058
	0.395000	-1.585642
	0.400000	-1.627546
	0.405000	-1.559855
	0.410000	-1.508281
	0.415000	-1.582418
	0.420000	-1.633992
	0.425000	-1.559855
	0.430000	-1.514728
	0.435000	-1.588865
	0.440000	-1.633992
	0.445000	-1.569525
	0.450000	-1.514728
	0.455000	-1.592089
	0.460000	-1.640439
	0.465000	-1.569525
	0.470000	-1.517951
	0.475000	-1.592089
	0.480000	-1.640439
	0.485000	-1.575972
	0.490000	-1.517951
	0.495000	-1.592089
	0.500000	-1.650109
	0.505000	-1.572748
	0.510000	-1.517951
	0.515000	-1.595312
	0.520000	-1.646886
	0.525000	-1.575972
	0.530000	-1.521175
	0.535000	-1.598535
	0.540000	-1.653332
	0.545000	-1.572748
	0.550000	-1.524398
	0.555000	-1.601759
	0.560000	-1.643662
	0.565000	-1.569525
	0.570000	-1.517951
	0.575000	-1.592089
	0.580000	-1.646886
	0.585000	-1.579195
	0.590000	-1.524398
	0.595000	-1.592089
	0.600000	-1.646886
	0.605000	-1.575972
	0.610000	-1.514728
	0.615000	-1.595312
	0.620000	-1.643662
	0.625000	-1.572748
	0.630000	-1.524398
	0.635000	-1.592089
	0.640000	-1.650109
	0.645000	-1.579195
	0.650000	-1.524398
	0.655000	-1.588865
	0.660000	-1.653332
	0.665000	-1.579195
	0.670000	-1.521175
	0.675000	-1.588865
	0.680000	-1.650109
	0.685000	-1.575972
	0.690000	-1.524398
	0.695000	-1.588865
	0.700000	-1.650109
	0.705000	-1.579195
	0.710000	-1.521175
	0.715000	-1.592089
	0.720000	-1.643662
	0.725000	-1.582418
	0.730000	-1.524398
	0.735000	-1.595312
	0.740000	-1.653332
	0.745000	-1.579195
	0.750000	-1.527621
	0.755000	-1.598535
	0.760000	-1.650109
	0.765000	-1.575972
	0.770000	-1.527621
	0.775000	-1.592089
	0.780000	-1.650109
	0.785000	-1.582418
	0.790000	-1.527621
	0.795000	-1.595312
	0.800000	-1.653332
	0.805000	-1.585642
	0.810000	-1.524398
	0.815000	-1.598535
	0.820000	-1.650109
	0.825000	-1.585642
	0.830000	-1.527621
	0.835000	-1.598535
	0.840000	-1.656556
	0.845000	-1.588865
	0.850000	-1.527621
	0.855000	-1.598535
	0.860000	-1.656556
	0.865000	-1.585642
	0.870000	-1.534068
	0.875000	-1.598535
	0.880000	-1.663002
	0.885000	-1.592089
	0.890000	-1.530845
	0.895000	-1.604982
	0.900000	-1.663002
	0.905000	-1.585642
	0.910000	-1.534068
	0.915000	-1.601759
	0.920000	-1.656556
	0.925000	-1.588865
	0.930000	-1.530845
	0.935000	-1.598535
	0.940000	-1.656556
	0.945000	-1.588865
	0.950000	-1.537291
	0.955000	-1.604982
	0.960000	-1.659779
	0.965000	-1.592089
	0.970000	-1.534068
	0.975000	-1.608205
	0.980000	-1.663002
	0.985000	-1.598535
	0.990000	-1.537291
	0.995000	-1.604982
	1.000000	-1.669449
	1.005000	-1.595312
	1.010000	-1.537291
	1.015000	-1.604982
	1.020000	-1.669449
	1.025000	-1.598535
	1.030000	-1.540515
	1.035000	-1.608205
	1.040000	-1.669449
	1.045000	-1.604982
	1.050000	-1.543738
	1.055000	-1.604982
	1.060000	-1.672673
	1.065000	-1.598535
	1.070000	-1.546962
	1.075000	-1.614652
	1.080000	-1.675896
	1.085000	-1.601759
	1.090000	-1.550185
	1.095000	-1.611429
	1.100000	-1.675896
	1.105000	-1.608205
	1.110000	-1.553408
	1.115000	-1.614652
	1.120000	-1.682343
	1.125000	-1.611429
	1.130000	-1.550185
	1.135000	-1.621099
	1.140000	-1.679119
	1.145000	-1.617875
	1.150000	-1.553408
	1.155000	-1.621099
	1.160000	-1.682343
	1.165000	-1.611429
	1.170000	-1.559855
	1.175000	-1.621099
	1.180000	-1.685566
	1.185000	-1.621099
	1.190000	-1.563078
	1.195000	-1.633992
	1.200000	-1.688789
	1.205000	-1.621099
	1.210000	-1.563078
	1.215000	-1.624322
	1.220000	-1.692013
	1.225000	-1.630769
	1.230000	-1.566302
	1.235000	-1.633992
	1.240000	-1.698459
	1.245000	-1.624322
	1.250000	-1.566302
	1.255000	-1.627546
	1.260000	-1.692013
	1.265000	-1.633992
	1.270000	-1.569525
	1.275000	-1.633992
	1.280000	-1.692013
	1.285000	-1.627546
	1.290000	-1.569525
	1.295000	-1.637216
	1.300000	-1.695236
	1.305000	-1.637216
	1.310000	-1.569525
	1.315000	-1.633992
	1.320000	-1.701683
	1.325000	-1.646886
	1.330000	-1.572748
	1.335000	-1.637216
	1.340000	-1.695236
	1.345000	-1.630769
	1.350000	-1.572748
	1.355000	-1.633992
	1.360000	-1.698459
	1.365000	-1.633992
	1.370000	-1.572748
	1.375000	-1.630769
	1.380000	-1.704906
	1.385000	-1.637216
	1.390000	-1.572748
	1.395000	-1.637216
	1.400000	-1.698459
	1.405000	-1.633992
	1.410000	-1.569525
	1.415000	-1.637216
	1.420000	-1.698459
	1.425000	-1.637216
	1.430000	-1.572748
	1.435000	-1.637216
	1.440000	-1.692013
	1.445000	-1.630769
	1.450000	-1.563078
	1.455000	-1.627546
	1.460000	-1.695236
	1.465000	-1.630769
	1.470000	-1.566302
	1.475000	-1.627546
	1.480000	-1.688789
	1.485000	-1.621099
	1.490000	-1.559855
	1.495000	-1.621099
	1.500000	-1.682343
	1.505000	-1.617875
	1.510000	-1.546962
	1.515000	-1.608205
	1.520000	-1.666226
	1.525000	-1.592089
	1.530000	-1.527621
	1.535000	-1.585642
	1.540000	-1.643662
	1.545000	-1.582418
	1.550000	-1.501835
	1.555000	-1.563078
	1.560000	-1.624322
	1.565000	-1.546962
	1.570000	-1.482494
	1.575000	-1.537291
	1.580000	-1.598535
	1.585000	-1.534068
	1.590000	-1.459931
	1.595000	-1.514728
	1.600000	-1.575972
	1.605000	-1.501835
	1.610000	-1.437367
	1.615000	-1.495388
	1.620000	-1.553408
	1.625000	-1.482494
	1.630000	-1.414804
	1.635000	-1.469601
	1.640000	-1.530845
	1.645000	-1.463154
	1.650000	-1.398687
	1.655000	-1.456707
	1.660000	-1.517951
	1.665000	-1.453484
	1.670000	-1.385794
	1.675000	-1.437367
	1.680000	-1.501835
	1.685000	-1.434144
	1.690000	-1.360007
	1.695000	-1.418027
	1.700000	-1.482494
	1.705000	-1.427697
	1.710000	-1.350337
	1.715000	-1.411580
	1.720000	-1.472824
	1.725000	-1.414804
	1.730000	-1.343890
	1.735000	-1.398687
	1.740000	-1.459931
	1.745000	-1.395464
	1.750000	-1.337443
	1.755000	-1.395464
	1.760000	-1.459931
	1.765000	-1.398687
	1.770000	-1.330996
	1.775000	-1.392240
	1.780000	-1.453484
	1.785000	-1.395464
	1.790000	-1.327773
	1.795000	-1.385794
	1.800000	-1.450261
	1.805000	-1.395464
	1.810000	-1.334220
	1.815000	-1.392240
	1.820000	-1.453484
	1.825000	-1.395464
	1.830000	-1.337443
	1.835000	-1.392240
	1.840000	-1.456707
	1.845000	-1.411580
	1.850000	-1.337443
	1.855000	-1.395464
	1.860000	-1.463154
	1.865000	-1.408357
	1.870000	-1.347113
	1.875000	-1.398687
	1.880000	-1.469601
	1.885000	-1.421251
	1.890000	-1.356783
	1.895000	-1.411580
	1.900000	-1.485718
	1.905000	-1.430921
	1.910000	-1.366453
	1.915000	-1.424474
	1.920000	-1.495388
	1.925000	-1.447037
	1.930000	-1.385794
	1.935000	-1.440591
	1.940000	-1.508281
	1.945000	-1.453484
	1.950000	-1.395464
	1.955000	-1.450261
	1.960000	-1.514728
	1.965000	-1.463154
	1.970000	-1.401910
	1.975000	-1.453484
	1.980000	-1.524398
	1.985000	-1.466378
	1.990000	-1.398687
	1.995000	-1.447037
	2.000000	-1.517951
	2.005000	-1.463154
	2.010000	-1.389017
	2.015000	-1.434144
	2.020000	-1.505058
	2.025000	-1.437367
	2.030000	-1.360007
	2.035000	-1.405134
	2.040000	-1.466378
	2.045000	-1.401910
	2.050000	-1.324550
	2.055000	-1.366453
	2.060000	-1.434144
	2.065000	-1.372900
	2.070000	-1.295540
	2.075000	-1.343890
	2.080000	-1.411580
	2.085000	-1.350337
	2.090000	-1.282646
	2.095000	-1.340667
	2.100000	-1.414804
	2.105000	-1.356783
	2.110000	-1.282646
	2.115000	-1.334220
	2.120000	-1.414804
	2.125000	-1.363230
	2.130000	-1.295540
	2.135000	-1.350337
	2.140000	-1.421251
	2.145000	-1.376124
	2.150000	-1.321326
	2.155000	-1.369677
	2.160000	-1.440591
	2.165000	-1.398687
	2.170000	-1.337443
	2.175000	-1.392240
	2.180000	-1.466378
	2.185000	-1.414804
	2.190000	-1.356783
	2.195000	-1.405134
	2.200000	-1.479271
	2.205000	-1.437367
	2.210000	-1.369677
	2.215000	-1.418027
	2.220000	-1.492164
	2.225000	-1.447037
	2.230000	-1.372900
	2.235000	-1.421251
	2.240000	-1.498611
	2.245000	-1.447037
	2.250000	-1.369677
	2.255000	-1.424474
	2.260000	-1.495388
	2.265000	-1.437367
	2.270000	-1.356783
	2.275000	-1.395464
	2.280000	-1.463154
	2.285000	-1.401910
	2.290000	-1.324550
	2.295000	-1.369677
	2.300000	-1.424474
	2.305000	-1.369677
	2.310000	-1.292316
	2.315000	-1.334220
	2.320000	-1.395464
	2.325000	-1.347113
	2.330000	-1.263306
	2.335000	-1.301986
	2.340000	-1.366453
	2.345000	-1.311656
	2.350000	-1.243966
	2.355000	-1.276199
	2.360000	-1.343890
	2.365000	-1.292316
	2.370000	-1.221402
	2.375000	-1.263306
	2.380000	-1.330996
	2.385000	-1.279423
	2.390000	-1.205285
	2.395000	-1.243966
	2.400000	-1.318103
	2.405000	-1.263306
	2.410000	-1.192392
	2.415000	-1.231072
	2.420000	-1.301986
	2.425000	-1.247189
	2.430000	-1.179499
	2.435000	-1.224626
	2.440000	-1.285869
	2.445000	-1.237519
	2.450000	-1.173052
	2.455000	-1.218179
	2.460000	-1.285869
	2.465000	-1.237519
	2.470000	-1.173052
	2.475000	-1.211732
	2.480000	-1.282646
	2.485000	-1.237519
	2.490000	-1.169829
	2.495000	-1.214956
	2.500000	-1.279423
	2.505000	-1.234296
	2.510000	-1.166605
	2.515000	-1.214956
	2.520000	-1.282646
	2.525000	-1.234296
	2.530000	-1.169829
	2.535000	-1.218179
	2.540000	-1.289093
	2.545000	-1.243966
	2.550000	-1.169829
	2.555000	-1.218179
	2.560000	-1.289093
	2.565000	-1.247189
	2.570000	-1.173052
	2.575000	-1.218179
	2.580000	-1.295540
	2.585000	-1.260083
	2.590000	-1.189169
	2.595000	-1.234296
	2.600000	-1.308433
	2.605000	-1.266529
	2.610000	-1.202062
	2.615000	-1.250413
	2.620000	-1.327773
	2.625000	-1.289093
	2.630000	-1.227849
	2.635000	-1.276199
	2.640000	-1.356783
	2.645000	-1.318103
	2.650000	-1.250413
	2.655000	-1.301986
	2.660000	-1.382570
	2.665000	-1.340667
	2.670000	-1.276199
	2.675000	-1.327773
	2.680000	-1.398687
	2.685000	-1.366453
	2.690000	-1.298763
	2.695000	-1.353560
	2.700000	-1.430921
	2.705000	-1.395464
	2.710000	-1.334220
	2.715000	-1.382570
	2.720000	-1.456707
	2.725000	-1.421251
	2.730000	-1.350337
	2.735000	-1.408357
	2.740000	-1.476048
	2.745000	-1.440591
	2.750000	-1.369677
	2.755000	-1.421251
	2.760000	-1.508281
	2.765000	-1.463154
	2.770000	-1.385794
	2.775000	-1.440591
	2.780000	-1.514728
	2.785000	-1.476048
	2.790000	-1.411580
	2.795000	-1.450261
	2.800000	-1.527621
	2.805000	-1.492164
	2.810000	-1.418027
	2.815000	-1.469601
	2.820000	-1.543738
	2.825000	-1.511505
	2.830000	-1.437367
	2.835000	-1.476048
	2.840000	-1.559855
	2.845000	-1.521175
	2.850000	-1.443814
	2.855000	-1.485718
	2.860000	-1.566302
	2.865000	-1.517951
	2.870000	-1.463154
	2.875000	-1.495388
	2.880000	-1.575972
	2.885000	-1.534068
	2.890000	-1.463154
	2.895000	-1.501835
	2.900000	-1.579195
	2.905000	-1.543738
	2.910000	-1.469601
	2.915000	-1.505058
	2.920000	-1.585642
	2.925000	-1.550185
	2.930000	-1.476048
	2.935000	-1.514728
	2.940000	-1.582418
	2.945000	-1.550185
	2.950000	-1.472824
	2.955000	-1.514728
	2.960000	-1.592089
	2.965000	-1.550185
	2.970000	-1.479271
	2.975000	-1.521175
	2.980000	-1.598535
	2.985000	-1.556632
	2.990000	-1.482494
	2.995000	-1.521175
	3.000000	-1.604982
	3.005000	-1.559855
	3.010000	-1.485718
	3.015000	-1.527621
	3.020000	-1.601759
	3.025000	-1.569525
	3.030000	-1.488941
	3.035000	-1.530845
	3.040000	-1.611429
	3.045000	-1.566302
	3.050000	-1.498611
	3.055000	-1.534068
	3.060000	-1.614652
	3.065000	-1.575972
	3.070000	-1.498611
	3.075000	-1.537291
	3.080000	-1.611429
	3.085000	-1.575972
	3.090000	-1.508281
	3.095000	-1.543738
	3.100000	-1.621099
	3.105000	-1.575972
	3.110000	-1.505058
	3.115000	-1.543738
	3.120000	-1.624322
	3.125000	-1.585642
	3.130000	-1.511505
	3.135000	-1.546962
	3.140000	-1.621099
	3.145000	-1.585642
	3.150000	-1.508281
	3.155000	-1.540515
	3.160000	-1.624322
	3.165000	-1.588865
	3.170000	-1.511505
	3.175000	-1.546962
	3.180000	-1.627546
	3.185000	-1.592089
	3.190000	-1.511505
	3.195000	-1.550185
	3.200000	-1.627546
	3.205000	-1.595312
	3.210000	-1.514728
	3.215000	-1.556632
	3.220000	-1.633992
	3.225000	-1.595312
	3.230000	-1.517951
	3.235000	-1.556632
	3.240000	-1.637216
	3.245000	-1.595312
	3.250000	-1.524398
	3.255000	-1.559855
	3.260000	-1.637216
	3.265000	-1.601759
	3.270000	-1.527621
	3.275000	-1.563078
	3.280000	-1.640439
	3.285000	-1.604982
	3.290000	-1.521175
	3.295000	-1.566302
	3.300000	-1.643662
	3.305000	-1.601759
	3.310000	-1.530845
	3.315000	-1.563078
	3.320000	-1.646886
	3.325000	-1.604982
	3.330000	-1.530845
	3.335000	-1.572748
	3.340000	-1.643662
	3.345000	-1.611429
	3.350000	-1.537291
	3.355000	-1.575972
	3.360000	-1.643662
	3.365000	-1.611429
	3.370000	-1.534068
	3.375000	-1.566302
	3.380000	-1.650109
	3.385000	-1.614652
	3.390000	-1.537291
	3.395000	-1.572748
	3.400000	-1.650109
	3.405000	-1.611429
	3.410000	-1.527621
	3.415000	-1.566302
	3.420000	-1.650109
	3.425000	-1.611429
	3.430000	-1.537291
	3.435000	-1.569525
	3.440000	-1.646886
	3.445000	-1.611429
	3.450000	-1.540515
	3.455000	-1.572748
	3.460000	-1.646886
	3.465000	-1.611429
	3.470000	-1.534068
	3.475000	-1.569525
	3.480000	-1.656556
	3.485000	-1.614652
	3.490000	-1.540515
	3.495000	-1.569525
	3.500000	-1.650109
	3.505000	-1.617875
	3.510000	-1.540515
	3.515000	-1.569525
	3.520000	-1.646886
	3.525000	-1.614652
	3.530000	-1.540515
	3.535000	-1.566302
	3.540000	-1.650109
	3.545000	-1.624322
	3.550000	-1.537291
	3.555000	-1.569525
	3.560000	-1.653332
	3.565000	-1.621099
	3.570000	-1.537291
	3.575000	-1.575972
	3.580000	-1.656556
	3.585000	-1.617875
	3.590000	-1.537291
	3.595000	-1.566302
	3.600000	-1.650109
	3.605000	-1.621099
	3.610000	-1.543738
	3.615000	-1.569525
	3.620000	-1.650109
	3.625000	-1.617875
	3.630000	-1.543738
	3.635000	-1.566302
	3.640000	-1.646886
	3.645000	-1.624322
	3.650000	-1.540515
	3.655000	-1.569525
	3.660000	-1.650109
	3.665000	-1.617875
	3.670000	-1.543738
	3.675000	-1.569525
	3.680000	-1.646886
	3.685000	-1.621099
	3.690000	-1.537291
	3.695000	-1.566302
	3.700000	-1.656556
	3.705000	-1.617875
	3.710000	-1.534068
	3.715000	-1.569525
	3.720000	-1.653332
	3.725000	-1.617875
	3.730000	-1.543738
	3.735000	-1.569525
	3.740000	-1.653332
	3.745000	-1.621099
	3.750000	-1.543738
	3.755000	-1.572748
	3.760000	-1.653332
	3.765000	-1.624322
	3.770000	-1.543738
	3.775000	-1.566302
	3.780000	-1.646886
	3.785000	-1.621099
	3.790000	-1.540515
	3.795000	-1.569525
	3.800000	-1.646886
	3.805000	-1.624322
	3.810000	-1.537291
	3.815000	-1.563078
	3.820000	-1.650109
	3.825000	-1.624322
	3.830000	-1.540515
	3.835000	-1.566302
	3.840000	-1.653332
	3.845000	-1.617875
	3.850000	-1.540515
	3.855000	-1.572748
	3.860000	-1.656556
	3.865000	-1.617875
	3.870000	-1.537291
	3.875000	-1.563078
	3.880000	-1.646886
	3.885000	-1.617875
	3.890000	-1.543738
	3.895000	-1.572748
	3.900000	-1.653332
	3.905000	-1.627546
	3.910000	-1.543738
	3.915000	-1.572748
	3.920000	-1.656556
	3.925000	-1.630769
	3.930000	-1.546962
	3.935000	-1.572748
	3.940000	-1.659779
	3.945000	-1.630769
	3.950000	-1.546962
	3.955000	-1.575972
	3.960000	-1.653332
	3.965000	-1.630769
	3.970000	-1.550185
	3.975000	-1.575972
	3.980000	-1.659779
	3.985000	-1.637216
	3.990000	-1.553408
	3.995000	-1.579195
	4.000000	-1.663002
	4.005000	-1.637216
	4.010000	-1.553408
	4.015000	-1.575972
	4.020000	-1.663002
	4.025000	-1.633992
	4.030000	-1.559855
	4.035000	-1.575972
	4.040000	-1.663002
	4.045000	-1.640439
	4.050000	-1.556632
	4.055000	-1.582418
	4.060000	-1.663002
	4.065000	-1.640439
	4.070000	-1.556632
	4.075000	-1.585642
	4.080000	-1.659779
	4.085000	-1.637216
	4.090000	-1.556632
	4.095000	-1.582418
	4.100000	-1.666226
	4.105000	-1.637216
	4.110000	-1.556632
	4.115000	-1.579195
	4.120000	-1.669449
	4.125000	-1.646886
	4.130000	-1.556632
	4.135000	-1.575972
	4.140000	-1.663002
	4.145000	-1.643662
	4.150000	-1.556632
	4.155000	-1.582418
	4.160000	-1.666226
	4.165000	-1.640439
	4.170000	-1.556632
	4.175000	-1.585642
	4.180000	-1.669449
	4.185000	-1.650109
	4.190000	-1.556632
	4.195000	-1.585642
	4.200000	-1.669449
	4.205000	-1.646886
	4.210000	-1.556632
	4.215000	-1.582418
	4.220000	-1.675896
	4.225000	-1.646886
	4.230000	-1.569525
	4.235000	-1.582418
	4.240000	-1.669449
	4.245000	-1.643662
	4.250000	-1.569525
	4.255000	-1.592089
	4.260000	-1.672673
	4.265000	-1.650109
	4.270000	-1.569525
	4.275000	-1.588865
	4.280000	-1.672673
	4.285000	-1.650109
	4.290000	-1.569525
	4.295000	-1.592089
	4.300000	-1.682343
	4.305000	-1.650109
	4.310000	-1.575972
	4.315000	-1.588865
	4.320000	-1.679119
	4.325000	-1.653332
	4.330000	-1.569525
	4.335000	-1.588865
	4.340000	-1.679119
	4.345000	-1.656556
	4.350000	-1.569525
	4.355000	-1.588865
	4.360000	-1.675896
	4.365000	-1.659779
	4.370000	-1.566302
	4.375000	-1.592089
	4.380000	-1.685566
	4.385000	-1.659779
	4.390000	-1.575972
	4.395000	-1.598535
	4.400000	-1.688789
	4.405000	-1.666226
	4.410000	-1.582418
	4.415000	-1.604982
	4.420000	-1.685566
	4.425000	-1.669449
	4.430000	-1.585642
	4.435000	-1.611429
	4.440000	-1.701683
	4.445000	-1.679119
	4.450000	-1.588865
	4.455000	-1.604982
	4.460000	-1.695236
	4.465000	-1.669449
	4.470000	-1.588865
	4.475000	-1.604982
	4.480000	-1.698459
	4.485000	-1.679119
	4.490000	-1.588865
	4.495000	-1.604982
	4.500000	-1.688789
	4.505000	-1.672673
	4.510000	-1.588865
	4.515000	-1.604982
	4.520000	-1.688789
	4.525000	-1.659779
	4.530000	-1.582418
	4.535000	-1.595312
	4.540000	-1.682343
	4.545000	-1.663002
	4.550000	-1.579195
	4.555000	-1.595312
	4.560000	-1.679119
	4.565000	-1.659779
	4.570000	-1.572748
	4.575000	-1.585642
	4.580000	-1.669449
	4.585000	-1.650109
	4.590000	-1.569525
	4.595000	-1.579195
	4.600000	-1.669449
	4.605000	-1.650109
	4.610000	-1.563078
	4.615000	-1.575972
	4.620000	-1.666226
	4.625000	-1.643662
	4.630000	-1.563078
	4.635000	-1.575972
	4.640000	-1.659779
	4.645000	-1.643662
	4.650000	-1.556632
	4.655000	-1.572748
	4.660000	-1.656556
	4.665000	-1.643662
	4.670000	-1.550185
	4.675000	-1.572748
	4.680000	-1.656556
	4.685000	-1.643662
	4.690000	-1.550185
	4.695000	-1.566302
	4.700000	-1.653332
	4.705000	-1.637216
	4.710000	-1.550185
	4.715000	-1.566302
	4.720000	-1.656556
	4.725000	-1.637216
	4.730000	-1.546962
	4.735000	-1.559855
	4.740000	-1.646886
	4.745000	-1.633992
	4.750000	-1.546962
	4.755000	-1.556632
	4.760000	-1.637216
	4.765000	-1.624322
	4.770000	-1.540515
	4.775000	-1.546962
	4.780000	-1.637216
	4.785000	-1.621099
	4.790000	-1.534068
	4.795000	-1.543738
	4.800000	-1.624322
	4.805000	-1.614652
	4.810000	-1.524398
	4.815000	-1.537291
	4.820000	-1.611429
	4.825000	-1.601759
	4.830000	-1.511505
	4.835000	-1.527621
	4.840000	-1.611429
	4.845000	-1.598535
	4.850000	-1.508281
	4.855000	-1.514728
	4.860000	-1.601759
	4.865000	-1.598535
	4.870000	-1.498611
	4.875000	-1.508281
	4.880000	-1.598535
	4.885000	-1.579195
	4.890000	-1.492164
	4.895000	-1.508281
	4.900000	-1.592089
	4.905000	-1.579195
	4.910000	-1.492164
	4.915000	-1.495388
	4.920000	-1.579195
	4.925000	-1.569525
	4.930000	-1.485718
	4.935000	-1.495388
	4.940000	-1.572748
	4.945000	-1.566302
	4.950000	-1.476048
	4.955000	-1.485718
	4.960000	-1.572748
	4.965000	-1.559855
	4.970000	-1.476048
	4.975000	-1.479271
	4.980000	-1.569525
	4.985000	-1.553408
	4.990000	-1.466378
	4.995000	-1.479271
	5.000000	-1.563078
	5.005000	-1.553408
	5.010000	-1.463154
	5.015000	-1.472824
	5.020000	-1.563078
	5.025000	-1.546962
	5.030000	-1.459931
	5.035000	-1.472824
	5.040000	-1.556632
	5.045000	-1.543738
	5.050000	-1.459931
	5.055000	-1.469601
	5.060000	-1.553408
	5.065000	-1.546962
	5.070000	-1.469601
	5.075000	-1.472824
	5.080000	-1.559855
	5.085000	-1.550185
	5.090000	-1.472824
	5.095000	-1.479271
	5.100000	-1.572748
	5.105000	-1.566302
	5.110000	-1.482494
	5.115000	-1.488941
	5.120000	-1.572748
	5.125000	-1.575972
	5.130000	-1.485718
	5.135000	-1.485718
	5.140000	-1.575972
	5.145000	-1.566302
	5.150000	-1.472824
	5.155000	-1.482494
	5.160000	-1.559855
	5.165000	-1.550185
	5.170000	-1.456707
	5.175000	-1.459931
	5.180000	-1.534068
	5.185000	-1.521175
	5.190000	-1.418027
	5.195000	-1.421251
	5.200000	-1.498611
	5.205000	-1.479271
	5.210000	-1.379347
	5.215000	-1.376124
	5.220000	-1.450261
	5.225000	-1.430921
	5.230000	-1.334220
	5.235000	-1.324550
	5.240000	-1.411580
	5.245000	-1.392240
	5.250000	-1.305210
	5.255000	-1.298763
	5.260000	-1.392240
	5.265000	-1.389017
	5.270000	-1.295540
	5.275000	-1.298763
	5.280000	-1.385794
	5.285000	-1.385794
	5.290000	-1.301986
	5.295000	-1.308433
	5.300000	-1.401910
	5.305000	-1.398687
	5.310000	-1.311656
	5.315000	-1.327773
	5.320000	-1.414804
	5.325000	-1.418027
	5.330000	-1.343890
	5.335000	-1.350337
	5.340000	-1.443814
	5.345000	-1.453484
	5.350000	-1.360007
	5.355000	-1.369677
	5.360000	-1.463154
	5.365000	-1.459931
	5.370000	-1.376124
	5.375000	-1.379347
	5.380000	-1.472824
	5.385000	-1.469601
	5.390000	-1.385794
	5.395000	-1.392240
	5.400000	-1.479271
	5.405000	-1.472824
	5.410000	-1.389017
	5.415000	-1.392240
	5.420000	-1.482494
	5.425000	-1.482494
	5.430000	-1.395464
	5.435000	-1.389017
	5.440000	-1.479271
	5.445000	-1.476048
	5.450000	-1.389017
	5.455000	-1.385794
	5.460000	-1.466378
	5.465000	-1.456707
	5.470000	-1.372900
	5.475000	-1.366453
	5.480000	-1.450261
	5.485000	-1.434144
	5.490000	-1.347113
	5.495000	-1.343890
	5.500000	-1.424474
	5.505000	-1.418027
	5.510000	-1.327773
	5.515000	-1.318103
	5.520000	-1.398687
	5.525000	-1.389017
	5.530000	-1.295540
	5.535000	-1.282646
	5.540000	-1.360007
	5.545000	-1.347113
	5.550000	-1.256859
	5.555000	-1.247189
	5.560000	-1.324550
	5.565000	-1.321326
	5.570000	-1.234296
	5.575000	-1.224626
	5.580000	-1.305210
	5.585000	-1.301986
	5.590000	-1.221402
	5.595000	-1.218179
	5.600000	-1.298763
	5.605000	-1.301986
	5.610000	-1.218179
	5.615000	-1.208509
	5.620000	-1.298763
	5.625000	-1.298763
	5.630000	-1.211732
	5.635000	-1.218179
	5.640000	-1.301986
	5.645000	-1.305210
	5.650000	-1.224626
	5.655000	-1.218179
	5.660000	-1.305210
	5.665000	-1.314880
	5.670000	-1.234296
	5.675000	-1.234296
	5.680000	-1.324550
	5.685000	-1.327773
	5.690000	-1.247189
	5.695000	-1.247189
	5.700000	-1.337443
	5.705000	-1.343890
	5.710000	-1.260083
	5.715000	-1.263306
	5.720000	-1.347113
	5.725000	-1.353560
	5.730000	-1.266529
	5.735000	-1.266529
	5.740000	-1.353560
	5.745000	-1.366453
	5.750000	-1.282646
	5.755000	-1.289093
	5.760000	-1.372900
	5.765000	-1.382570
	5.770000	-1.295540
	5.775000	-1.305210
	5.780000	-1.398687
	5.785000	-1.398687
	5.790000	-1.321326
	5.795000	-1.311656
	5.800000	-1.411580
	5.805000	-1.418027
	5.810000	-1.340667
	5.815000	-1.340667
	5.820000	-1.430921
	5.825000	-1.430921
	5.830000	-1.363230
	5.835000	-1.356783
	5.840000	-1.450261
	5.845000	-1.456707
	5.850000	-1.382570
	5.855000	-1.376124
	5.860000	-1.472824
	5.865000	-1.476048
	5.870000	-1.398687
	5.875000	-1.405134
	5.880000	-1.492164
	5.885000	-1.501835
	5.890000	-1.411580
	5.895000	-1.414804
	5.900000	-1.505058
	5.905000	-1.511505
	5.910000	-1.434144
	5.915000	-1.424474
	5.920000	-1.517951
	5.925000	-1.527621
	5.930000	-1.440591
	5.935000	-1.437367
	5.940000	-1.534068
	5.945000	-1.540515
	5.950000	-1.459931
	5.955000	-1.459931
	5.960000	-1.543738
	5.965000	-1.553408
	5.970000	-1.466378
	5.975000	-1.466378
	5.980000	-1.556632
	5.985000	-1.566302
	5.990000	-1.476048
	5.995000	-1.469601
	6.000000	-1.563078
	6.005000	-1.575972
	6.010000	-1.488941
	6.015000	-1.482494
	6.020000	-1.563078
	6.025000	-1.579195
	6.030000	-1.498611
	6.035000	-1.488941
	6.040000	-1.575972
	6.045000	-1.585642
	6.050000	-1.498611
	6.055000	-1.492164
	6.060000	-1.579195
	6.065000	-1.595312
	6.070000	-1.508281
	6.075000	-1.492164
	6.080000	-1.592089
	6.085000	-1.588865
	6.090000	-1.511505
	6.095000	-1.505058
	6.100000	-1.582418
	6.105000	-1.598535
	6.110000	-1.521175
	6.115000	-1.501835
	6.120000	-1.585642
	6.125000	-1.601759
	6.130000	-1.514728
	6.135000	-1.505058
	6.140000	-1.588865
	6.145000	-1.604982
	6.150000	-1.517951
	6.155000	-1.508281
	6.160000	-1.595312
	6.165000	-1.601759
	6.170000	-1.514728
	6.175000	-1.511505
	6.180000	-1.598535
	6.185000	-1.604982
	6.190000	-1.521175
	6.195000	-1.508281
	6.200000	-1.601759
	6.205000	-1.608205
	6.210000	-1.517951
	6.215000	-1.511505
	6.220000	-1.608205
	6.225000	-1.614652
	6.230000	-1.530845
	6.235000	-1.514728
	6.240000	-1.611429
	6.245000	-1.617875
	6.250000	-1.527621
	6.255000	-1.517951
	6.260000	-1.604982
	6.265000	-1.621099
	6.270000	-1.537291
	6.275000	-1.517951
	6.280000	-1.604982
	6.285000	-1.617875
	6.290000	-1.537291
	6.295000	-1.524398
	6.300000	-1.608205
	6.305000	-1.624322
	6.310000	-1.537291
	6.315000	-1.524398
	6.320000	-1.608205
	6.325000	-1.624322
	6.330000	-1.540515
	6.335000	-1.527621
	6.340000	-1.614652
	6.345000	-1.624322
	6.350000	-1.537291
	6.355000	-1.524398
	6.360000	-1.611429
	6.365000	-1.627546
	6.370000	-1.540515
	6.375000	-1.527621
	6.380000	-1.611429
	6.385000	-1.627546
	6.390000	-1.540515
	6.395000	-1.527621
	6.400000	-1.608205
	6.405000	-1.621099
	6.410000	-1.540515
	6.415000	-1.521175
	6.420000	-1.604982
	6.425000	-1.621099
	6.430000	-1.537291
	6.435000	-1.521175
	6.440000	-1.604982
	6.445000	-1.627546
	6.450000	-1.530845
	6.455000	-1.514728
	6.460000	-1.601759
	6.465000	-1.617875
	6.470000	-1.527621
	6.475000	-1.517951
	6.480000	-1.598535
	6.485000	-1.614652
	6.490000	-1.527621
	6.495000	-1.508281
	6.500000	-1.592089
	6.505000	-1.614652
	6.510000	-1.524398
	6.515000	-1.505058
	6.520000	-1.595312
	6.525000	-1.611429
	6.530000	-1.524398
	6.535000	-1.508281
	6.540000	-1.592089
	6.545000	-1.611429
	6.550000	-1.527621
	6.555000	-1.505058
	6.560000	-1.595312
	6.565000	-1.601759
	6.570000	-1.521175
	6.575000	-1.511505
	6.580000	-1.582418
	6.585000	-1.604982
	6.590000	-1.521175
	6.595000	-1.498611
	6.600000	-1.588865
	6.605000	-1.604982
	6.610000	-1.517951
	6.615000	-1.498611
	6.620000	-1.579195
	6.625000	-1.608205
	6.630000	-1.517951
	6.635000	-1.495388
	6.640000	-1.579195
	6.645000	-1.601759
	6.650000	-1.517951
	6.655000	-1.498611
	6.660000	-1.582418
	6.665000	-1.604982
	6.670000	-1.514728
	6.675000	-1.495388
	6.680000	-1.579195
	6.685000	-1.601759
	6.690000	-1.521175
	6.695000	-1.495388
	6.700000	-1.585642
	6.705000	-1.598535
	6.710000	-1.517951
	6.715000	-1.492164
	6.720000	-1.582418
	6.725000	-1.601759
	6.730000	-1.521175
	6.735000	-1.498611
	6.740000	-1.575972
	6.745000	-1.598535
	6.750000	-1.514728
	6.755000	-1.488941
	6.760000	-1.575972
	6.765000	-1.604982
	6.770000	-1.521175
	6.775000	-1.485718
	6.780000	-1.575972
	6.785000	-1.598535
	6.790000	-1.517951
	6.795000	-1.492164
	6.800000	-1.585642
	6.805000	-1.608205
	6.810000	-1.517951
	6.815000	-1.495388
	6.820000	-1.579195
	6.825000	-1.601759
	6.830000	-1.514728
	6.835000	-1.492164
	6.840000	-1.579195
	6.845000	-1.598535
	6.850000	-1.517951
	6.855000	-1.495388
	6.860000	-1.572748
	6.865000	-1.598535
	6.870000	-1.511505
	6.875000	-1.492164
	6.880000	-1.579195
	6.885000	-1.598535
	6.890000	-1.521175
	6.895000	-1.492164
	6.900000	-1.579195
	6.905000	-1.608205
	6.910000	-1.521175
	6.915000	-1.492164
	6.920000	-1.572748
	6.925000	-1.601759
	6.930000	-1.521175
	6.935000	-1.492164
	6.940000	-1.575972
	6.945000	-1.598535
	6.950000	-1.514728
	6.955000	-1.492164
	6.960000	-1.579195
	6.965000	-1.601759
	6.970000	-1.517951
	6.975000	-1.488941
	6.980000	-1.575972
	6.985000	-1.604982
	6.990000	-1.527621
	6.995000	-1.495388
	7.000000	-1.575972
	7.005000	-1.601759
	7.010000	-1.517951
	7.015000	-1.492164
	7.020000	-1.579195
	7.025000	-1.601759
	7.030000	-1.517951
	7.035000	-1.492164
	7.040000	-1.572748
	7.045000	-1.611429
	7.050000	-1.524398
	7.055000	-1.495388
	7.060000	-1.579195
	7.065000	-1.608205
	7.070000	-1.527621
	7.075000	-1.498611
	7.080000	-1.579195
	7.085000	-1.611429
	7.090000	-1.530845
	7.095000	-1.498611
	7.100000	-1.575972
	7.105000	-1.608205
	7.110000	-1.534068
	7.115000	-1.501835
	7.120000	-1.582418
	7.125000	-1.611429
	7.130000	-1.534068
	7.135000	-1.498611
	7.140000	-1.582418
	7.145000	-1.614652
	7.150000	-1.527621
	7.155000	-1.495388
	7.160000	-1.585642
	7.165000	-1.611429
	7.170000	-1.527621
	7.175000	-1.501835
	7.180000	-1.579195
	7.185000	-1.611429
	7.190000	-1.530845
	7.195000	-1.501835
	7.200000	-1.579195
	7.205000	-1.611429
	7.210000	-1.527621
	7.215000	-1.495388
	7.220000	-1.585642
	7.225000	-1.608205
	7.230000	-1.527621
	7.235000	-1.498611
	7.240000	-1.582418
	7.245000	-1.608205
	7.250000	-1.534068
	7.255000	-1.505058
	7.260000	-1.579195
	7.265000	-1.608205
	7.270000	-1.530845
	7.275000	-1.498611
	7.280000	-1.579195
	7.285000	-1.614652
	7.290000	-1.530845
	7.295000	-1.501835
	7.300000	-1.582418
	7.305000	-1.608205
	7.310000	-1.534068
	7.315000	-1.495388
	7.320000	-1.582418
	7.325000	-1.611429
	7.330000	-1.534068
	7.335000	-1.501835
	7.340000	-1.582418
	7.345000	-1.611429
	7.350000	-1.530845
	7.355000	-1.498611
	7.360000	-1.585642
	7.365000	-1.617875
	7.370000	-1.540515
	7.375000	-1.505058
	7.380000	-1.582418
	7.385000	-1.614652
	7.390000	-1.540515
	7.395000	-1.508281
	7.400000	-1.588865
	7.405000	-1.617875
	7.410000	-1.540515
	7.415000	-1.508281
	7.420000	-1.592089
	7.425000	-1.624322
	7.430000	-1.540515
	7.435000	-1.514728
	7.440000	-1.582418
	7.445000	-1.621099
	7.450000	-1.546962
	7.455000	-1.505058
	7.460000	-1.592089
	7.465000	-1.627546
	7.470000	-1.550185
	7.475000	-1.511505
	7.480000	-1.588865
	7.485000	-1.621099
	7.490000	-1.553408
	7.495000	-1.511505
	7.500000	-1.588865
	7.505000	-1.627546
	7.510000	-1.546962
	7.515000	-1.511505
	7.520000	-1.592089
	7.525000	-1.630769
	7.530000	-1.550185
	7.535000	-1.517951
	7.540000	-1.595312
	7.545000	-1.630769
	7.550000	-1.546962
	7.555000	-1.517951
	7.560000	-1.588865
	7.565000	-1.630769
	7.570000	-1.553408
	7.575000	-1.514728
	7.580000	-1.595312
	7.585000	-1.627546
	7.590000	-1.543738
	7.595000	-1.508281
	7.600000	-1.588865
	7.605000	-1.630769
	7.610000	-1.546962
	7.615000	-1.511505
	7.620000	-1.595312
	7.625000	-1.627546
	7.630000	-1.550185
	7.635000	-1.501835
	7.640000	-1.588865
	7.645000	-1.621099
	7.650000	-1.546962
	7.655000	-1.514728
	7.660000	-1.579195
	7.665000	-1.627546
	7.670000	-1.543738
	7.675000	-1.498611
	7.680000	-1.579195
	7.685000	-1.614652
	7.690000	-1.540515
	7.695000	-1.501835
	7.700000	-1.579195
	7.705000	-1.617875
	7.710000	-1.537291
	7.715000	-1.498611
	7.720000	-1.582418
	7.725000	-1.614652
	7.730000	-1.540515
	7.735000	-1.498611
	7.740000	-1.575972
	7.745000	-1.617875
	7.750000	-1.540515
	7.755000	-1.495388
	7.760000	-1.572748
	7.765000	-1.611429
	7.770000	-1.537291
	7.775000	-1.492164
	7.780000	-1.572748
	7.785000	-1.611429
	7.790000	-1.534068
	7.795000	-1.492164
	7.800000	-1.566302
	7.805000	-1.611429
	7.810000	-1.534068
	7.815000	-1.485718
	7.820000	-1.566302
	7.825000	-1.611429
	7.830000	-1.534068
	7.835000	-1.488941
	7.840000	-1.563078
	7.845000	-1.598535
	7.850000	-1.527621
	7.855000	-1.495388
	7.860000	-1.563078
	7.865000	-1.604982
	7.870000	-1.524398
	7.875000	-1.479271
	7.880000	-1.556632
	7.885000	-1.592089
	7.890000	-1.521175
	7.895000	-1.482494
	7.900000	-1.559855
	7.905000	-1.604982
	7.910000	-1.527621
	7.915000	-1.482494
	7.920000	-1.559855
	7.925000	-1.598535
	7.930000	-1.521175
	7.935000	-1.469601
	7.940000	-1.550185
	7.945000	-1.588865
	7.950000	-1.524398
	7.955000	-1.479271
	7.960000	-1.550185
	7.965000	-1.588865
	7.970000	-1.517951
	7.975000	-1.472824
	7.980000	-1.553408
	7.985000	-1.588865
	7.990000	-1.524398
	7.995000	-1.476048
	8.000000	-1.546962
	8.005000	-1.592089
	8.010000	-1.517951
	8.015000	-1.472824
	8.020000	-1.550185
	8.025000	-1.588865
	8.030000	-1.521175
	8.035000	-1.466378
	8.040000	-1.550185
	8.045000	-1.592089
	8.050000	-1.521175
	8.055000	-1.469601
	8.060000	-1.543738
	8.065000	-1.598535
	8.070000	-1.517951
	8.075000	-1.466378
	8.080000	-1.546962
	8.085000	-1.592089
	8.090000	-1.517951
	8.095000	-1.466378
	8.100000	-1.546962
	8.105000	-1.592089
	8.110000	-1.517951
	8.115000	-1.472824
	8.120000	-1.546962
	8.125000	-1.592089
	8.130000	-1.511505
	8.135000	-1.472824
	8.140000	-1.546962
	8.145000	-1.592089
	8.150000	-1.524398
	8.155000	-1.472824
	8.160000	-1.543738
	8.165000	-1.592089
	8.170000	-1.521175
	8.175000	-1.472824
	8.180000	-1.553408
	8.185000	-1.592089
	8.190000	-1.517951
	8.195000	-1.469601
	8.200000	-1.550185
	8.205000	-1.592089
	8.210000	-1.517951
	8.215000	-1.469601
	8.220000	-1.543738
	8.225000	-1.595312
	8.230000	-1.517951
	8.235000	-1.472824
	8.240000	-1.546962
	8.245000	-1.588865
	8.250000	-1.517951
	8.255000	-1.472824
	8.260000	-1.546962
	8.265000	-1.592089
	8.270000	-1.517951
	8.275000	-1.476048
	8.280000	-1.543738
	8.285000	-1.601759
	8.290000	-1.527621
	8.295000	-1.479271
	8.300000	-1.543738
	8.305000	-1.601759
	8.310000	-1.524398
	8.315000	-1.476048
	8.320000	-1.550185
	8.325000	-1.604982
	8.330000	-1.534068
	8.335000	-1.479271
	8.340000	-1.550185
	8.345000	-1.598535
	8.350000	-1.524398
	8.355000	-1.479271
	8.360000	-1.553408
	8.365000	-1.601759
	8.370000	-1.527621
	8.375000	-1.479271
	8.380000	-1.543738
	8.385000	-1.598535
	8.390000	-1.524398
	8.395000	-1.479271
	8.400000	-1.546962
	8.405000	-1.598535
	8.410000	-1.537291
	8.415000	-1.476048
	8.420000	-1.556632
	8.425000	-1.604982
	8.430000	-1.527621
	8.435000	-1.476048
	8.440000	-1.546962
	8.445000	-1.598535
	8.450000	-1.534068
	8.455000	-1.482494
	8.460000	-1.553408
	8.465000	-1.608205
	8.470000	-1.534068
	8.475000	-1.479271
	8.480000	-1.553408
	8.485000	-1.604982
	8.490000	-1.527621
	8.495000	-1.472824
	8.500000	-1.550185
	8.505000	-1.592089
	8.510000	-1.534068
	8.515000	-1.485718
	8.520000	-1.546962
	8.525000	-1.598535
	8.530000	-1.534068
	8.535000	-1.472824
	8.540000	-1.546962
	8.545000	-1.601759
	8.550000	-1.527621
	8.555000	-1.476048
	8.560000	-1.537291
	8.565000	-1.595312
	8.570000	-1.521175
	8.575000	-1.476048
	8.580000	-1.534068
	8.585000	-1.592089
	8.590000	-1.524398
	8.595000	-1.469601
	8.600000	-1.537291
	8.605000	-1.592089
	8.610000	-1.521175
	8.615000	-1.463154
	8.620000	-1.537291
	8.625000	-1.585642
	8.630000	-1.514728
	8.635000	-1.459931
	8.640000	-1.530845
	8.645000	-1.585642
	8.650000	-1.514728
	8.655000	-1.456707
	8.660000	-1.527621
	8.665000	-1.579195
	8.670000	-1.501835
	8.675000	-1.463154
	8.680000	-1.521175
	8.685000	-1.572748
	8.690000	-1.508281
	8.695000	-1.453484
	8.700000	-1.521175
	8.705000	-1.579195
	8.710000	-1.508281
	8.715000	-1.443814
	8.720000	-1.517951
	8.725000	-1.579195
	8.730000	-1.505058
	8.735000	-1.447037
	8.740000	-1.511505
	8.745000	-1.569525
	8.750000	-1.501835
	8.755000	-1.443814
	8.760000	-1.517951
	8.765000	-1.569525
	8.770000	-1.495388
	8.775000	-1.440591
	8.780000	-1.508281
	8.785000	-1.563078
	8.790000	-1.495388
	8.795000	-1.440591
	8.800000	-1.508281
	8.805000	-1.566302
	8.810000	-1.498611
	8.815000	-1.440591
	8.820000	-1.508281
	8.825000	-1.569525
	8.830000	-1.498611
	8.835000	-1.443814
	8.840000	-1.498611
	8.845000	-1.559855
	8.850000	-1.495388
	8.855000	-1.443814
	8.860000	-1.511505
	8.865000	-1.566302
	8.870000	-1.495388
	8.875000	-1.437367
	8.880000	-1.505058
	8.885000	-1.559855
	8.890000	-1.498611
	8.895000	-1.443814
	8.900000	-1.508281
	8.905000	-1.559855
	8.910000	-1.501835
	8.915000	-1.437367
	8.920000	-1.501835
	8.925000	-1.563078
	8.930000	-1.495388
	8.935000	-1.437367
	8.940000	-1.501835
	8.945000	-1.563078
	8.950000	-1.492164
	8.955000	-1.437367
	8.960000	-1.492164
	8.965000	-1.553408
	8.970000	-1.492164
	8.975000	-1.424474
	8.980000	-1.488941
	8.985000	-1.546962
	8.990000	-1.479271
	8.995000	-1.421251
	9.000000	-1.488941
	9.005000	-1.540515
	9.010000	-1.479271
	9.015000	-1.414804
	9.020000	-1.479271
	9.025000	-1.537291
	9.030000	-1.472824
	9.035000	-1.418027
	9.040000	-1.472824
	9.045000	-1.534068
	9.050000	-1.469601
	9.055000	-1.418027
	9.060000	-1.479271
	9.065000	-1.527621
	9.070000	-1.466378
	9.075000	-1.408357
	9.080000	-1.466378
	9.085000	-1.517951
	9.090000	-1.456707
	9.095000	-1.398687
	9.100000	-1.456707
	9.105000	-1.511505
	9.110000	-1.450261
	9.115000	-1.389017
	9.120000	-1.443814
	9.125000	-1.498611
	9.130000	-1.434144
	9.135000	-1.366453
	9.140000	-1.427697
	9.145000	-1.482494
	9.150000	-1.411580
	9.155000	-1.337443
	9.160000	-1.405134
	9.165000	-1.450261
	9.170000	-1.382570
	9.175000	-1.311656
	9.180000	-1.360007
	9.185000	-1.414804
	9.190000	-1.337443
	9.195000	-1.269753
	9.200000	-1.321326
	9.205000	-1.366453
	9.210000	-1.301986
	9.215000	-1.237519
	9.220000	-1.292316
	9.225000	-1.347113
	9.230000	-1.282646
	9.235000	-1.234296
	9.240000	-1.285869
	9.245000	-1.347113
	9.250000	-1.285869
	9.255000	-1.224626
	9.260000	-1.285869
	9.265000	-1.343890
	9.270000	-1.292316
	9.275000	-1.240742
	9.280000	-1.308433
	9.285000	-1.379347
	9.290000	-1.318103
	9.295000	-1.269753
	9.300000	-1.330996
	9.305000	-1.401910
	9.310000	-1.337443
	9.315000	-1.282646
	9.320000	-1.360007
	9.325000	-1.414804
	9.330000	-1.360007
	9.335000	-1.295540
	9.340000	-1.363230
	9.345000	-1.421251
	9.350000	-1.360007
	9.355000	-1.285869
	9.360000	-1.353560
	9.365000	-1.408357
	9.370000	-1.350337
	9.375000	-1.282646
	9.380000	-1.337443
	9.385000	-1.395464
	9.390000	-1.330996
	9.395000	-1.260083
	9.400000	-1.314880
	9.405000	-1.369677
	9.410000	-1.298763
	9.415000	-1.227849
	9.420000	-1.276199
	9.425000	-1.330996
	9.430000	-1.272976
	9.435000	-1.192392
	9.440000	-1.243966
	9.445000	-1.295540
	9.450000	-1.231072
	9.455000	-1.166605
	9.460000	-1.218179
	9.465000	-1.269753
	9.470000	-1.208509
	9.475000	-1.140818
	9.480000	-1.195615
	9.485000	-1.256859
	9.490000	-1.198839
	9.495000	-1.134372
	9.500000	-1.185945
	9.505000	-1.247189
	9.510000	-1.192392
	9.515000	-1.131148
	9.520000	-1.189169
	9.525000	-1.260083
	9.530000	-1.198839
	9.535000	-1.140818
	9.540000	-1.195615
	9.545000	-1.263306
	9.550000	-1.211732
	9.555000	-1.153712
	9.560000	-1.205285
	9.565000	-1.279423
	9.570000	-1.224626
	9.575000	-1.169829
	9.580000	-1.234296
	9.585000	-1.298763
	9.590000	-1.250413
	9.595000	-1.192392
	9.600000	-1.256859
	9.605000	-1.324550
	9.610000	-1.266529
	9.615000	-1.211732
	9.620000	-1.279423
	9.625000	-1.340667
	9.630000	-1.295540
	9.635000	-1.231072
	9.640000	-1.292316
	9.645000	-1.363230
	9.650000	-1.301986
	9.655000	-1.250413
	9.660000	-1.311656
	9.665000	-1.379347
	9.670000	-1.334220
	9.675000	-1.266529
	9.680000	-1.327773
	9.685000	-1.398687
	9.690000	-1.350337
	9.695000	-1.285869
	9.700000	-1.353560
	9.705000	-1.418027
	9.710000	-1.366453
	9.715000	-1.298763
	9.720000	-1.360007
	9.725000	-1.427697
	9.730000	-1.382570
	9.735000	-1.311656
	9.740000	-1.363230
	9.745000	-1.434144
	9.750000	-1.382570
	9.755000	-1.318103
	9.760000	-1.369677
	9.765000	-1.443814
	9.770000	-1.385794
	9.775000	-1.321326
	9.780000	-1.382570
	9.785000	-1.447037
	9.790000	-1.392240
	9.795000	-1.327773
	9.800000	-1.385794
	9.805000	-1.456707
	9.810000	-1.401910
	9.815000	-1.334220
	9.820000	-1.398687
	9.825000	-1.463154
	9.830000	-1.411580
	9.835000	-1.343890
	9.840000	-1.398687
	9.845000	-1.476048
	9.850000	-1.427697
	9.855000	-1.356783
	9.860000	-1.408357
	9.865000	-1.476048
	9.870000	-1.424474
	9.875000	-1.366453
	9.880000	-1.418027
	9.885000	-1.488941
	9.890000	-1.443814
	9.895000	-1.372900
	9.900000	-1.427697
	9.905000	-1.501835
	9.910000	-1.447037
	9.915000	-1.382570
	9.920000	-1.440591
	9.925000	-1.508281
	9.930000	-1.459931
	9.935000	-1.392240
	9.940000	-1.443814
	9.945000	-1.517951
	9.950000	-1.466378
	9.955000	-1.395464
	9.960000	-1.450261
	9.965000	-1.527621
	9.970000	-1.476048
	9.975000	-1.395464
	9.980000	-1.456707
	9.985000	-1.524398
	9.990000	-1.472824
	9.995000	-1.408357
	10.000000	-1.459931
	10.005000	-1.530845
	10.010000	-1.479271
	10.015000	-1.418027
	10.020000	-1.459931
	10.025000	-1.530845
	10.030000	-1.476048
	10.035000	-1.411580
	10.040000	-1.463154
	10.045000	-1.537291
	10.050000	-1.485718
	10.055000	-1.411580
	10.060000	-1.463154
	10.065000	-1.530845
	10.070000	-1.488941
	10.075000	-1.414804
	10.080000	-1.466378
	10.085000	-1.543738
	10.090000	-1.492164
	10.095000	-1.414804
	10.100000	-1.469601
	10.105000	-1.540515
	10.110000	-1.488941
	10.115000	-1.418027
	10.120000	-1.469601
	10.125000	-1.546962
	10.130000	-1.495388
	10.135000	-1.418027
	10.140000	-1.469601
	10.145000	-1.543738
	10.150000	-1.495388
	10.155000	-1.427697
	10.160000	-1.472824
	10.165000	-1.540515
	10.170000	-1.498611
	10.175000	-1.421251
	10.180000	-1.469601
	10.185000	-1.546962
	10.190000	-1.498611
	10.195000	-1.424474
	10.200000	-1.472824
	10.205000	-1.556632
	10.210000	-1.501835
	10.215000	-1.430921
	10.220000	-1.482494
	10.225000	-1.553408
	10.230000	-1.511505
	10.235000	-1.430921
	10.240000	-1.479271
	10.245000	-1.553408
	10.250000	-1.514728
	10.255000	-1.437367
	10.260000	-1.485718
	10.265000	-1.569525
	10.270000	-1.511505
	10.275000	-1.450261
	10.280000	-1.492164
	10.285000	-1.566302
	10.290000	-1.517951
	10.295000	-1.440591
	10.300000	-1.492164
	10.305000	-1.569525
	10.310000	-1.524398
	10.315000	-1.450261
	10.320000	-1.495388
	10.325000	-1.569525
	10.330000	-1.524398
	10.335000	-1.447037
	10.340000	-1.495388
	10.345000	-1.569525
	10.350000	-1.524398
	10.355000	-1.443814
	10.360000	-1.488941
	10.365000	-1.572748
	10.370000	-1.517951
	10.375000	-1.450261
	10.380000	-1.492164
	10.385000	-1.563078
	10.390000	-1.514728
	10.395000	-1.443814
	10.400000	-1.482494
	10.405000	-1.563078
	10.410000	-1.511505
	10.415000	-1.437367
	10.420000	-1.485718
	10.425000	-1.556632
	10.430000	-1.511505
	10.435000	-1.434144
	10.440000	-1.485718
	10.445000	-1.556632
	10.450000	-1.508281
	10.455000	-1.437367
	10.460000	-1.482494
	10.465000	-1.553408
	10.470000	-1.508281
	10.475000	-1.434144
	10.480000	-1.479271
	10.485000	-1.550185
	10.490000	-1.508281
	10.495000	-1.430921
	10.500000	-1.476048
	10.505000	-1.553408
	10.510000	-1.505058
	10.515000	-1.427697
	10.520000	-1.476048
	10.525000	-1.543738
	10.530000	-1.508281
	10.535000	-1.434144
	10.540000	-1.476048
	10.545000	-1.550185
	10.550000	-1.505058
	10.555000	-1.430921
	10.560000	-1.463154
	10.565000	-1.553408
	10.570000	-1.508281
	10.575000	-1.427697
	10.580000	-1.472824
	10.585000	-1.553408
	10.590000	-1.505058
	10.595000	-1.427697
	10.600000	-1.469601
	10.605000	-1.553408
	10.610000	-1.508281
	10.615000	-1.430921
	10.620000	-1.476048
	10.625000	-1.550185
	10.630000	-1.508281
	10.635000	-1.430921
	10.640000	-1.476048
	10.645000	-1.553408
	10.650000	-1.498611
	10.655000	-1.430921
	10.660000	-1.469601
	10.665000	-1.546962
	10.670000	-1.508281
	10.675000	-1.424474
	10.680000	-1.472824
	10.685000	-1.546962
	10.690000	-1.505058
	10.695000	-1.427697
	10.700000	-1.469601
	10.705000	-1.540515
	10.710000	-1.501835
	10.715000	-1.424474
	10.720000	-1.466378
	10.725000	-1.543738
	10.730000	-1.492164
	10.735000	-1.427697
	10.740000	-1.463154
	10.745000	-1.540515
	10.750000	-1.498611
	10.755000	-1.418027
	10.760000	-1.459931
	10.765000	-1.540515
	10.770000	-1.495388
	10.775000	-1.421251
	10.780000	-1.463154
	10.785000	-1.543738
	10.790000	-1.505058
	10.795000	-1.424474
	10.800000	-1.459931
	10.805000	-1.540515
	10.810000	-1.488941
	10.815000	-1.421251
	10.820000	-1.459931
	10.825000	-1.537291
	10.830000	-1.495388
	10.835000	-1.421251
	10.840000	-1.463154
	10.845000	-1.537291
	10.850000	-1.498611
	10.855000	-1.418027
	10.860000	-1.459931
	10.865000	-1.534068
	10.870000	-1.492164
	10.875000	-1.421251
	10.880000	-1.463154
	10.885000	-1.537291
	10.890000	-1.492164
	10.895000	-1.414804
	10.900000	-1.456707
	10.905000	-1.534068
	10.910000	-1.498611
	10.915000	-1.414804
	10.920000	-1.453484
	10.925000	-1.527621
	10.930000	-1.492164
	10.935000	-1.411580
	10.940000	-1.453484
	10.945000	-1.517951
	10.950000	-1.485718
	10.955000	-1.405134
	10.960000	-1.440591
	10.965000	-1.524398
	10.970000	-1.485718
	10.975000	-1.401910
	10.980000	-1.443814
	10.985000	-1.521175
	10.990000	-1.482494
	10.995000	-1.408357
	11.000000	-1.447037
	11.005000	-1.524398
	11.010000	-1.492164
	11.015000	-1.405134
	11.020000	-1.447037
	11.025000	-1.527621
	11.030000	-1.488941
	11.035000	-1.411580
	11.040000	-1.450261
	11.045000	-1.537291
	11.050000	-1.492164
	11.055000	-1.414804
	11.060000	-1.447037
	11.065000	-1.530845
	11.070000	-1.488941
	11.075000	-1.418027
	11.080000	-1.450261
	11.085000	-1.530845
	11.090000	-1.495388
	11.095000	-1.408357
	11.100000	-1.450261
	11.105000	-1.534068
	11.110000	-1.498611
	11.115000	-1.414804
	11.120000	-1.453484
	11.125000	-1.537291
	11.130000	-1.505058
	11.135000	-1.421251
	11.140000	-1.453484
	11.145000	-1.537291
	11.150000	-1.498611
	11.155000	-1.424474
	11.160000	-1.453484
	11.165000	-1.540515
	11.170000	-1.505058
	11.175000	-1.418027
	11.180000	-1.456707
	11.185000	-1.540515
	11.190000	-1.498611
	11.195000	-1.427697
	11.200000	-1.453484
	11.205000	-1.546962
	11.210000	-1.508281
	11.215000	-1.437367
	11.220000	-1.466378
	11.225000	-1.556632
	11.230000	-1.511505
	11.235000	-1.437367
	11.240000	-1.472824
	11.245000	-1.553408
	11.250000	-1.527621
	11.255000	-1.443814
	11.260000	-1.482494
	11.265000	-1.553408
	11.270000	-1.530845
	11.275000	-1.443814
	11.280000	-1.479271
	11.285000	-1.566302
	11.290000	-1.530845
	11.295000	-1.443814
	11.300000	-1.482494
	11.305000	-1.563078
	11.310000	-1.534068
	11.315000	-1.453484
	11.320000	-1.492164
	11.325000	-1.572748
	11.330000	-1.530845
	11.335000	-1.459931
	11.340000	-1.485718
	11.345000	-1.575972
	11.350000	-1.543738
	11.355000	-1.459931
	11.360000	-1.492164
	11.365000	-1.572748
	11.370000	-1.543738
	11.375000	-1.459931
	11.380000	-1.492164
	11.385000	-1.579195
	11.390000	-1.546962
	11.395000	-1.459931
	11.400000	-1.492164
	11.405000	-1.575972
	11.410000	-1.540515
	11.415000	-1.463154
	11.420000	-1.495388
	11.425000	-1.572748
	11.430000	-1.543738
	11.435000	-1.459931
	11.440000	-1.492164
	11.445000	-1.579195
	11.450000	-1.546962
	11.455000	-1.459931
	11.460000	-1.492164
	11.465000	-1.575972
	11.470000	-1.550185
	11.475000	-1.463154
	11.480000	-1.492164
	11.485000	-1.575972
	11.490000	-1.546962
	11.495000	-1.463154
	11.500000	-1.495388
	11.505000	-1.566302
	11.510000	-1.543738
	11.515000	-1.456707
	11.520000	-1.488941
	11.525000	-1.572748
	11.530000	-1.543738
	11.535000	-1.459931
	11.540000	-1.488941
	11.545000	-1.572748
	11.550000	-1.546962
	11.555000	-1.459931
	11.560000	-1.485718
	11.565000	-1.569525
	11.570000	-1.543738
	11.575000	-1.459931
	11.580000	-1.488941
	11.585000	-1.572748
	11.590000	-1.540515
	11.595000	-1.456707
	11.600000	-1.488941
	11.605000	-1.572748
	11.610000	-1.546962
	11.615000	-1.456707
	11.620000	-1.488941
	11.625000	-1.569525
	11.630000	-1.540515
	11.635000	-1.456707
	11.640000	-1.488941
	11.645000	-1.572748
	11.650000	-1.550185
	11.655000	-1.463154
	11.660000	-1.495388
	11.665000	-1.575972
	11.670000	-1.550185
	11.675000	-1.466378
	11.680000	-1.488941
	11.685000	-1.572748
	11.690000	-1.540515
	11.695000	-1.463154
	11.700000	-1.492164
	11.705000	-1.575972
	11.710000	-1.543738
	11.715000	-1.459931
	11.720000	-1.492164
	11.725000	-1.572748
	11.730000	-1.543738
	11.735000	-1.463154
	11.740000	-1.488941
	11.745000	-1.572748
	11.750000	-1.540515
	11.755000	-1.456707
	11.760000	-1.485718
	11.765000	-1.569525
	11.770000	-1.537291
	11.775000	-1.463154
	11.780000	-1.485718
	11.785000	-1.572748
	11.790000	-1.546962
	11.795000	-1.459931
	11.800000	-1.482494
	11.805000	-1.569525
	11.810000	-1.546962
	11.815000	-1.456707
	11.820000	-1.479271
	11.825000	-1.566302
	11.830000	-1.540515
	11.835000	-1.456707
	11.840000	-1.479271
	11.845000	-1.559855
	11.850000	-1.540515
	11.855000	-1.453484
	11.860000	-1.476048
	11.865000	-1.559855
	11.870000	-1.546962
	11.875000	-1.453484
	11.880000	-1.479271
	11.885000	-1.559855
	11.890000	-1.534068
	11.895000	-1.453484
	11.900000	-1.476048
	11.905000	-1.559855
	11.910000	-1.540515
	11.915000	-1.450261
	11.920000	-1.472824
	11.925000	-1.563078
	11.930000	-1.534068
	11.935000	-1.443814
	11.940000	-1.479271
	11.945000	-1.559855
	11.950000	-1.534068
	11.955000	-1.450261
	11.960000	-1.469601
	11.965000	-1.556632
	11.970000	-1.537291
	11.975000	-1.447037
	11.980000	-1.469601
	11.985000	-1.559855
	11.990000	-1.530845
	11.995000	-1.443814
	12.000000	-1.466378
	12.005000	-1.550185
	12.010000	-1.530845
	12.015000	-1.447037
	12.020000	-1.469601
	12.025000	-1.550185
	12.030000	-1.530845
	12.035000	-1.443814
	12.040000	-1.466378
	12.045000	-1.543738
	12.050000	-1.524398
	12.055000	-1.443814
	12.060000	-1.459931
	12.065000	-1.540515
	12.070000	-1.534068
	12.075000	-1.440591
	12.080000	-1.463154
	12.085000	-1.546962
	12.090000	-1.530845
	12.095000	-1.443814
	12.100000	-1.459931
	12.105000	-1.553408
	12.110000	-1.527621
	12.115000	-1.440591
	12.120000	-1.459931
	12.125000	-1.543738
	12.130000	-1.524398
	12.135000	-1.443814
	12.140000	-1.459931
	12.145000	-1.550185
	12.150000	-1.524398
	12.155000	-1.437367
	12.160000	-1.453484
	12.165000	-1.540515
	12.170000	-1.521175
	12.175000	-1.440591
	12.180000	-1.453484
	12.185000	-1.537291
	12.190000	-1.521175
	12.195000	-1.434144
	12.200000	-1.447037
	12.205000	-1.537291
	12.210000	-1.514728
	12.215000	-1.427697
	12.220000	-1.453484
	12.225000	-1.537291
	12.230000	-1.521175
	12.235000	-1.430921
	12.240000	-1.443814
	12.245000	-1.540515
	12.250000	-1.517951
	12.255000	-1.427697
	12.260000	-1.456707
	12.265000	-1.534068
	12.270000	-1.517951
	12.275000	-1.434144
	12.280000	-1.450261
	12.285000	-1.540515
	12.290000	-1.517951
	12.295000	-1.437367
	12.300000	-1.453484
	12.305000	-1.537291
	12.310000	-1.521175
	12.315000	-1.437367
	12.320000	-1.443814
	12.325000	-1.534068
	12.330000	-1.517951
	12.335000	-1.434144
	12.340000	-1.450261
	12.345000	-1.540515
	12.350000	-1.521175
	12.355000	-1.434144
	12.360000	-1.450261
	12.365000	-1.534068
	12.370000	-1.524398
	12.375000	-1.437367
	12.380000	-1.456707
	12.385000	-1.540515
	12.390000	-1.527621
	12.395000	-1.440591
	12.400000	-1.456707
	12.405000	-1.540515
	12.410000	-1.527621
	12.415000	-1.437367
	12.420000	-1.459931
	12.425000	-1.540515
	12.430000	-1.530845
	12.435000	-1.447037
	12.440000	-1.456707
	12.445000	-1.546962
	12.450000	-1.530845
	12.455000	-1.447037
	12.460000	-1.466378
	12.465000	-1.550185
	12.470000	-1.537291
	12.475000	-1.453484
	12.480000	-1.459931
	12.485000	-1.553408
	12.490000	-1.540515
	12.495000	-1.456707
	12.500000	-1.466378
	12.505000	-1.546962
	12.510000	-1.537291
	12.515000	-1.453484
	12.520000	-1.459931
	12.525000	-1.550185
	12.530000	-1.537291
	12.535000	-1.450261
	12.540000	-1.456707
	12.545000	-1.543738
	12.550000	-1.534068
	12.555000	-1.443814
	12.560000	-1.459931
	12.565000	-1.543738
	12.570000	-1.530845
	12.575000	-1.430921
	12.580000	-1.450261
	12.585000	-1.534068
	12.590000	-1.524398
	12.595000	-1.434144
	12.600000	-1.437367
	12.605000	-1.527621
	12.610000	-1.511505
	12.615000	-1.421251
	12.620000	-1.434144
	12.625000	-1.517951
	12.630000	-1.498611
	12.635000	-1.414804
	12.640000	-1.418027
	12.645000	-1.505058
	12.650000	-1.498611
	12.655000	-1.401910
	12.660000	-1.414804
	12.665000	-1.495388
	12.670000	-1.482494
	12.675000	-1.398687
	12.680000	-1.411580
	12.685000	-1.488941
	12.690000	-1.472824
	12.695000	-1.392240
	12.700000	-1.395464
	12.705000	-1.485718
	12.710000	-1.476048
	12.715000	-1.385794
	12.720000	-1.389017
	12.725000	-1.479271
	12.730000	-1.469601
	12.735000	-1.379347
	12.740000	-1.385794
	12.745000	-1.479271
	12.750000	-1.463154
	12.755000	-1.372900
	12.760000	-1.385794
	12.765000	-1.469601
	12.770000	-1.463154
	12.775000	-1.369677
	12.780000	-1.379347
	12.785000	-1.472824
	12.790000	-1.459931
	12.795000	-1.376124
	12.800000	-1.379347
	12.805000	-1.466378
	12.810000	-1.453484
	12.815000	-1.376124
	12.820000	-1.382570
	12.825000	-1.469601
	12.830000	-1.459931
	12.835000	-1.376124
	12.840000	-1.379347
	12.845000	-1.469601
	12.850000	-1.453484
	12.855000	-1.376124
	12.860000	-1.379347
	12.865000	-1.466378
	12.870000	-1.456707
	12.875000	-1.366453
	12.880000	-1.379347
	12.885000	-1.459931
	12.890000	-1.453484
	12.895000	-1.372900
	12.900000	-1.372900
	12.905000	-1.456707
	12.910000	-1.443814
	12.915000	-1.363230
	12.920000	-1.366453
	12.925000	-1.443814
	12.930000	-1.437367
	12.935000	-1.353560
	12.940000	-1.356783
	12.945000	-1.440591
	12.950000	-1.430921
	12.955000	-1.343890
	12.960000	-1.343890
	12.965000	-1.430921
	12.970000	-1.418027
	12.975000	-1.337443
	12.980000	-1.327773
	12.985000	-1.414804
	12.990000	-1.398687
	12.995000	-1.305210
	13.000000	-1.308433
	13.005000	-1.389017
	13.010000	-1.376124
	13.015000	-1.279423
	13.020000	-1.272976
	13.025000	-1.353560
	13.030000	-1.340667
	13.035000	-1.247189
	13.040000	-1.237519
	13.045000	-1.321326
	13.050000	-1.305210
	13.055000	-1.211732
	13.060000	-1.208509
	13.065000	-1.295540
	13.070000	-1.285869
	13.075000	-1.198839
	13.080000	-1.192392
	13.085000	-1.282646
	13.090000	-1.279423
	13.095000	-1.185945
	13.100000	-1.195615
	13.105000	-1.285869
	13.110000	-1.289093
	13.115000	-1.192392
	13.120000	-1.208509
	13.125000	-1.301986
	13.130000	-1.295540
	13.135000	-1.211732
	13.140000	-1.214956
	13.145000	-1.314880
	13.150000	-1.311656
	13.155000	-1.231072
	13.160000	-1.237519
	13.165000	-1.324550
	13.170000	-1.314880
	13.175000	-1.227849
	13.180000	-1.234296
	13.185000	-1.321326
	13.190000	-1.321326
	13.195000	-1.234296
	13.200000	-1.231072
	13.205000	-1.321326
	13.210000	-1.321326
	13.215000	-1.243966
	13.220000	-1.243966
	13.225000	-1.334220
	13.230000	-1.334220
	13.235000	-1.247189
	13.240000	-1.243966
	13.245000	-1.334220
	13.250000	-1.330996
	13.255000	-1.243966
	13.260000	-1.237519
	13.265000	-1.314880
	13.270000	-1.311656
	13.275000	-1.211732
	13.280000	-1.205285
	13.285000	-1.276199
	13.290000	-1.263306
	13.295000	-1.169829
	13.300000	-1.156935
	13.305000	-1.224626
	13.310000	-1.218179
	13.315000	-1.121478
	13.320000	-1.111808
	13.325000	-1.192392
	13.330000	-1.185945
	13.335000	-1.095691
	13.340000	-1.092468
	13.345000	-1.173052
	13.350000	-1.163382
	13.355000	-1.076351
	13.360000	-1.076351
	13.365000	-1.156935
	13.370000	-1.160158
	13.375000	-1.086021
	13.380000	-1.076351
	13.385000	-1.160158
	13.390000	-1.166605
	13.395000	-1.079574
	13.400000	-1.079574
	13.405000	-1.166605
	13.410000	-1.173052
	13.415000	-1.079574
	13.420000	-1.076351
	13.425000	-1.163382
	13.430000	-1.160158
	13.435000	-1.082798
	13.440000	-1.076351
	13.445000	-1.156935
	13.450000	-1.163382
	13.455000	-1.079574
	13.460000	-1.086021
	13.465000	-1.173052
	13.470000	-1.173052
	13.475000	-1.089245
	13.480000	-1.086021
	13.485000	-1.173052
	13.490000	-1.182722
	13.495000	-1.098915
	13.500000	-1.092468
	13.505000	-1.185945
	13.510000	-1.179499
	13.515000	-1.102138
	13.520000	-1.098915
	13.525000	-1.185945
	13.530000	-1.185945
	13.535000	-1.108585
	13.540000	-1.115031
	13.545000	-1.189169
	13.550000	-1.198839
	13.555000	-1.121478
	13.560000	-1.121478
	13.565000	-1.205285
	13.570000	-1.211732
	13.575000	-1.134372
	13.580000	-1.121478
	13.585000	-1.218179
	13.590000	-1.224626
	13.595000	-1.150488
	13.600000	-1.147265
	13.605000	-1.234296
	13.610000	-1.243966
	13.615000	-1.169829
	13.620000	-1.169829
	13.625000	-1.253636
	13.630000	-1.263306
	13.635000	-1.185945
	13.640000	-1.185945
	13.645000	-1.276199
	13.650000	-1.289093
	13.655000	-1.211732
	13.660000	-1.205285
	13.665000	-1.301986
	13.670000	-1.305210
	13.675000	-1.224626
	13.680000	-1.224626
	13.685000	-1.318103
	13.690000	-1.327773
	13.695000	-1.247189
	13.700000	-1.250413
	13.705000	-1.340667
	13.710000	-1.347113
	13.715000	-1.269753
	13.720000	-1.266529
	13.725000	-1.356783
	13.730000	-1.366453
	13.735000	-1.285869
	13.740000	-1.279423
	13.745000	-1.372900
	13.750000	-1.382570
	13.755000	-1.305210
	13.760000	-1.298763
	13.765000	-1.385794
	13.770000	-1.392240
	13.775000	-1.314880
	13.780000	-1.305210
	13.785000	-1.392240
	13.790000	-1.408357
	13.795000	-1.321326
	13.800000	-1.314880
	13.805000	-1.398687
	13.810000	-1.411580
	13.815000	-1.330996
	13.820000	-1.324550
	13.825000	-1.411580
	13.830000	-1.421251
	13.835000	-1.334220
	13.840000	-1.327773
	13.845000	-1.414804
	13.850000	-1.430921
	13.855000	-1.347113
	13.860000	-1.334220
	13.865000	-1.421251
	13.870000	-1.437367
	13.875000	-1.350337
	13.880000	-1.343890
	13.885000	-1.427697
	13.890000	-1.437367
	13.895000	-1.356783
	13.900000	-1.343890
	13.905000	-1.437367
	13.910000	-1.447037
	13.915000	-1.363230
	13.920000	-1.350337
	13.925000	-1.440591
	13.930000	-1.447037
	13.935000	-1.369677
	13.940000	-1.350337
	13.945000	-1.447037
	13.950000	-1.459931
	13.955000	-1.366453
	13.960000	-1.363230
	13.965000	-1.456707
	13.970000	-1.459931
	13.975000	-1.369677
	13.980000	-1.369677
	13.985000	-1.463154
	13.990000	-1.466378
	13.995000	-1.379347
	14.000000	-1.376124
	14.005000	-1.459931
	14.010000	-1.466378
	14.015000	-1.382570
	14.020000	-1.372900
	14.025000	-1.463154
	14.030000	-1.476048
	14.035000	-1.389017
	14.040000	-1.376124
	14.045000	-1.463154
	14.050000	-1.482494
	14.055000	-1.395464
	14.060000	-1.379347
	14.065000	-1.469601
	14.070000	-1.479271
	14.075000	-1.389017
	14.080000	-1.382570
	14.085000	-1.472824
	14.090000	-1.482494
	14.095000	-1.395464
	14.100000	-1.389017
	14.105000	-1.472824
	14.110000	-1.488941
	14.115000	-1.398687
	14.120000	-1.385794
	14.125000	-1.469601
	14.130000	-1.485718
	14.135000	-1.405134
	14.140000	-1.392240
	14.145000	-1.476048
	14.150000	-1.488941
	14.155000	-1.405134
	14.160000	-1.385794
	14.165000	-1.479271
	14.170000	-1.492164
	14.175000	-1.401910
	14.180000	-1.392240
	14.185000	-1.472824
	14.190000	-1.495388
	14.195000	-1.401910
	14.200000	-1.385794
	14.205000	-1.472824
	14.210000	-1.495388
	14.215000	-1.405134
	14.220000	-1.385794
	14.225000	-1.476048
	14.230000	-1.488941
	14.235000	-1.405134
	14.240000	-1.389017
	14.245000	-1.476048
	14.250000	-1.495388
	14.255000	-1.408357
	14.260000	-1.385794
	14.265000	-1.472824
	14.270000	-1.492164
	14.275000	-1.398687
	14.280000	-1.389017
	14.285000	-1.479271
	14.290000	-1.488941
	14.295000	-1.405134
	14.300000	-1.385794
	14.305000	-1.479271
	14.310000	-1.488941
	14.315000	-1.401910
	14.320000	-1.385794
	14.325000	-1.472824
	14.330000	-1.492164
	14.335000	-1.405134
	14.340000	-1.385794
	14.345000	-1.472824
	14.350000	-1.485718
	14.355000	-1.398687
	14.360000	-1.372900
	14.365000	-1.459931
	14.370000	-1.488941
	14.375000	-1.395464
	14.380000	-1.382570
	14.385000	-1.463154
	14.390000	-1.482494
	14.395000	-1.395464
	14.400000	-1.369677
	14.405000	-1.456707
	14.410000	-1.472824
	14.415000	-1.395464
	14.420000	-1.372900
	14.425000	-1.456707
	14.430000	-1.472824
	14.435000	-1.382570
	14.440000	-1.366453
	14.445000	-1.459931
	14.450000	-1.476048
	14.455000	-1.392240
	14.460000	-1.366453
	14.465000	-1.453484
	14.470000	-1.472824
	14.475000	-1.389017
	14.480000	-1.366453
	14.485000	-1.453484
	14.490000	-1.472824
	14.495000	-1.379347
	14.500000	-1.363230
	14.505000	-1.450261
	14.510000	-1.469601
	14.515000	-1.382570
	14.520000	-1.366453
	14.525000	-1.450261
	14.530000	-1.472824
	14.535000	-1.382570
	14.540000	-1.363230
	14.545000	-1.440591
	14.550000	-1.469601
	14.555000	-1.382570
	14.560000	-1.360007
	14.565000	-1.443814
	14.570000	-1.469601
	14.575000	-1.385794
	14.580000	-1.353560
	14.585000	-1.450261
	14.590000	-1.472824
	14.595000	-1.379347
	14.600000	-1.363230
	14.605000	-1.450261
	14.610000	-1.466378
	14.615000	-1.382570
	14.620000	-1.356783
	14.625000	-1.450261
	14.630000	-1.472824
	14.635000	-1.382570
	14.640000	-1.353560
	14.645000	-1.450261
	14.650000	-1.463154
	14.655000	-1.382570
	14.660000	-1.360007
	14.665000	-1.443814
	14.670000	-1.469601
	14.675000	-1.382570
	14.680000	-1.366453
	14.685000	-1.447037
	14.690000	-1.469601
	14.695000	-1.382570
	14.700000	-1.353560
	14.705000	-1.450261
	14.710000	-1.472824
	14.715000	-1.379347
	14.720000	-1.356783
	14.725000	-1.450261
	14.730000	-1.472824
	14.735000	-1.389017
	14.740000	-1.360007
	14.745000	-1.450261
	14.750000	-1.469601
	14.755000	-1.382570
	14.760000	-1.356783
	14.765000	-1.447037
	14.770000	-1.466378
	14.775000	-1.385794
	14.780000	-1.363230
	14.785000	-1.440591
	14.790000	-1.476048
	14.795000	-1.382570
	14.800000	-1.363230
	14.805000	-1.450261
	14.810000	-1.472824
	14.815000	-1.392240
	14.820000	-1.360007
	14.825000	-1.447037
	14.830000	-1.472824
	14.835000	-1.385794
	14.840000	-1.363230
	14.845000	-1.443814
	14.850000	-1.472824
	14.855000	-1.392240
	14.860000	-1.366453
	14.865000	-1.443814
	14.870000	-1.466378
	14.875000	-1.389017
	14.880000	-1.363230
	14.885000	-1.443814
	14.890000	-1.469601
	14.895000	-1.385794
	14.900000	-1.356783
	14.905000	-1.443814
	14.910000	-1.469601
	14.915000	-1.389017
	14.920000	-1.360007
	14.925000	-1.450261
	14.930000	-1.469601
	14.935000	-1.382570
	14.940000	-1.356783
	14.945000	-1.440591
	14.950000	-1.472824
	14.955000	-1.392240
	14.960000	-1.360007
	14.965000	-1.443814
	14.970000	-1.472824
	14.975000	-1.389017
	14.980000	-1.356783
	14.985000	-1.437367
	14.990000	-1.472824
	14.995000	-1.382570
	15.000000	-1.353560
	15.005000	-1.443814
	15.010000	-1.469601
	15.015000	-1.385794
	15.020000	-1.356783
	15.025000	-1.437367
	15.030000	-1.463154
	15.035000	-1.392240
	15.040000	-1.356783
	15.045000	-1.430921
	15.050000	-1.469601
	15.055000	-1.385794
	15.060000	-1.353560
	15.065000	-1.440591
	15.070000	-1.469601
	15.075000	-1.382570
	15.080000	-1.360007
	15.085000	-1.434144
	15.090000	-1.466378
	15.095000	-1.392240
	15.100000	-1.356783
	15.105000	-1.434144
	15.110000	-1.459931
	15.115000	-1.389017
	15.120000	-1.353560
	15.125000	-1.430921
	15.130000	-1.466378
	15.135000	-1.379347
	15.140000	-1.356783
	15.145000	-1.430921
	15.150000	-1.456707
	15.155000	-1.382570
	15.160000	-1.343890
	15.165000	-1.434144
	15.170000	-1.466378
	15.175000	-1.379347
	15.180000	-1.353560
	15.185000	-1.430921
	15.190000	-1.459931
	15.195000	-1.382570
	15.200000	-1.347113
	15.205000	-1.434144
	15.210000	-1.463154
	15.215000	-1.379347
	15.220000	-1.347113
	15.225000	-1.434144
	15.230000	-1.463154
	15.235000	-1.382570
	15.240000	-1.340667
	15.245000	-1.430921
	15.250000	-1.463154
	15.255000	-1.379347
	15.260000	-1.343890
	15.265000	-1.427697
	15.270000	-1.456707
	15.275000	-1.379347
	15.280000	-1.347113
	15.285000	-1.427697
	15.290000	-1.463154
	15.295000	-1.376124
	15.300000	-1.340667
	15.305000	-1.424474
	15.310000	-1.459931
	15.315000	-1.382570
	15.320000	-1.343890
	15.325000	-1.427697
	15.330000	-1.456707
	15.335000	-1.379347
	15.340000	-1.334220
	15.345000	-1.427697
	15.350000	-1.453484
	15.355000	-1.379347
	15.360000	-1.343890
	15.365000	-1.421251
	15.370000	-1.456707
	15.375000	-1.376124
	15.380000	-1.343890
	15.385000	-1.421251
	15.390000	-1.456707
	15.395000	-1.379347
	15.400000	-1.340667
	15.405000	-1.421251
	15.410000	-1.463154
	15.415000	-1.385794
	15.420000	-1.350337
	15.425000	-1.427697
	15.430000	-1.459931
	15.435000	-1.382570
	15.440000	-1.347113
	15.445000	-1.424474
	15.450000	-1.466378
	15.455000	-1.385794
	15.460000	-1.353560
	15.465000	-1.427697
	15.470000	-1.469601
	15.475000	-1.379347
	15.480000	-1.353560
	15.485000	-1.430921
	15.490000	-1.463154
	15.495000	-1.385794
	15.500000	-1.356783
	15.505000	-1.430921
	15.510000	-1.469601
	15.515000	-1.389017
	15.520000	-1.356783
	15.525000	-1.430921
	15.530000	-1.469601
	15.535000	-1.392240
	15.540000	-1.353560
	15.545000	-1.434144
	15.550000	-1.469601
	15.555000	-1.392240
	15.560000	-1.350337
	15.565000	-1.427697
	15.570000	-1.469601
	15.575000	-1.389017
	15.580000	-1.353560
	15.585000	-1.430921
	15.590000	-1.472824
	15.595000	-1.389017
	15.600000	-1.353560
	15.605000	-1.434144
	15.610000	-1.463154
	15.615000	-1.389017
	15.620000	-1.350337
	15.625000	-1.427697
	15.630000	-1.469601
	15.635000	-1.385794
	15.640000	-1.347113
	15.645000	-1.427697
	15.650000	-1.463154
	15.655000	-1.385794
	15.660000	-1.343890
	15.665000	-1.424474
	15.670000	-1.466378
	15.675000	-1.382570
	15.680000	-1.350337
	15.685000	-1.430921
	15.690000	-1.463154
	15.695000	-1.385794
	15.700000	-1.343890
	15.705000	-1.427697
	15.710000	-1.469601
	15.715000	-1.385794
	15.720000	-1.353560
	15.725000	-1.424474
	15.730000	-1.466378
	15.735000	-1.389017
	15.740000	-1.347113
	15.745000	-1.424474
	15.750000	-1.469601
	15.755000	-1.392240
	15.760000	-1.350337
	15.765000	-1.424474
	15.770000	-1.469601
	15.775000	-1.385794
	15.780000	-1.353560
	15.785000	-1.424474
	15.790000	-1.466378
	15.795000	-1.392240
	15.800000	-1.347113
	15.805000	-1.434144
	15.810000	-1.466378
	15.815000	-1.389017
	15.820000	-1.343890
	15.825000	-1.424474
	15.830000	-1.472824
	15.835000	-1.392240
	15.840000	-1.350337
	15.845000	-1.424474
	15.850000	-1.463154
	15.855000	-1.392240
	15.860000	-1.340667
	15.865000	-1.427697
	15.870000	-1.469601
	15.875000	-1.385794
	15.880000	-1.343890
	15.885000	-1.424474
	15.890000	-1.469601
	15.895000	-1.392240
	15.900000	-1.340667
	15.905000	-1.421251
	15.910000	-1.456707
	15.915000	-1.382570
	15.920000	-1.347113
	15.925000	-1.418027
	15.930000	-1.463154
	15.935000	-1.379347
	15.940000	-1.337443
	15.945000	-1.418027
	15.950000	-1.459931
	15.955000	-1.379347
	15.960000	-1.337443
	15.965000	-1.414804
	15.970000	-1.456707
	15.975000	-1.379347
	15.980000	-1.340667
	15.985000	-1.418027
	15.990000	-1.459931
	15.995000	-1.382570
	16.000000	-1.337443
	16.005000	-1.418027
	16.010000	-1.453484
	16.015000	-1.382570
	16.020000	-1.330996
	16.025000	-1.418027
	16.030000	-1.456707
	16.035000	-1.382570
	16.040000	-1.334220
	16.045000	-1.408357
	16.050000	-1.456707
	16.055000	-1.382570
	16.060000	-1.340667
	16.065000	-1.411580
	16.070000	-1.459931
	16.075000	-1.382570
	16.080000	-1.330996
	16.085000	-1.408357
	16.090000	-1.453484
	16.095000	-1.382570
	16.100000	-1.334220
	16.105000	-1.411580
	16.110000	-1.463154
	16.115000	-1.379347
	16.120000	-1.334220
	16.125000	-1.408357
	16.130000	-1.453484
	16.135000	-1.382570
	16.140000	-1.334220
	16.145000	-1.408357
	16.150000	-1.450261
	16.155000	-1.385794
	16.160000	-1.337443
	16.165000	-1.411580
	16.170000	-1.459931
	16.175000	-1.385794
	16.180000	-1.334220
	16.185000	-1.405134
	16.190000	-1.456707
	16.195000	-1.379347
	16.200000	-1.337443
	16.205000	-1.411580
	16.210000	-1.456707
	16.215000	-1.385794
	16.220000	-1.337443
	16.225000	-1.414804
	16.230000	-1.456707
	16.235000	-1.382570
	16.240000	-1.340667
	16.245000	-1.411580
	16.250000	-1.456707
	16.255000	-1.385794
	16.260000	-1.340667
	16.265000	-1.405134
	16.270000	-1.459931
	16.275000	-1.382570
	16.280000	-1.340667
	16.285000	-1.401910
	16.290000	-1.463154
	16.295000	-1.389017
	16.300000	-1.337443
	16.305000	-1.411580
	16.310000	-1.450261
	16.315000	-1.385794
	16.320000	-1.324550
	16.325000	-1.405134
	16.330000	-1.456707
	16.335000	-1.379347
	16.340000	-1.327773
	16.345000	-1.411580
	16.350000	-1.450261
	16.355000	-1.385794
	16.360000	-1.330996
	16.365000	-1.405134
	16.370000	-1.447037
	16.375000	-1.385794
	16.380000	-1.327773
	16.385000	-1.405134
	16.390000	-1.456707
	16.395000	-1.379347
	16.400000	-1.327773
	16.405000	-1.398687
	16.410000	-1.450261
	16.415000	-1.379347
	16.420000	-1.327773
	16.425000	-1.405134
	16.430000	-1.450261
	16.435000	-1.376124
	16.440000	-1.321326
	16.445000	-1.398687
	16.450000	-1.447037
	16.455000	-1.379347
	16.460000	-1.327773
	16.465000	-1.398687
	16.470000	-1.447037
	16.475000	-1.376124
	16.480000	-1.327773
	16.485000	-1.401910
	16.490000	-1.447037
	16.495000	-1.382570
	16.500000	-1.327773
	16.505000	-1.398687
	16.510000	-1.453484
	16.515000	-1.382570
	16.520000	-1.327773
	16.525000	-1.395464
	16.530000	-1.450261
	16.535000	-1.379347
	16.540000	-1.327773
	16.545000	-1.392240
	16.550000	-1.447037
	16.555000	-1.379347
	16.560000	-1.324550
	16.565000	-1.392240
	16.570000	-1.453484
	16.575000	-1.382570
	16.580000	-1.318103
	16.585000	-1.395464
	16.590000	-1.443814
	16.595000	-1.376124
	16.600000	-1.324550
	16.605000	-1.395464
	16.610000	-1.450261
	16.615000	-1.372900
	16.620000	-1.327773
	16.625000	-1.392240
	16.630000	-1.443814
	16.635000	-1.376124
	16.640000	-1.321326
	16.645000	-1.392240
	16.650000	-1.443814
	16.655000	-1.372900
	16.660000	-1.314880
	16.665000	-1.382570
	16.670000	-1.443814
	16.675000	-1.366453
	16.680000	-1.318103
	16.685000	-1.389017
	16.690000	-1.443814
	16.695000	-1.372900
	16.700000	-1.321326
	16.705000	-1.392240
	16.710000	-1.437367
	16.715000	-1.372900
	16.720000	-1.321326
	16.725000	-1.385794
	16.730000	-1.443814
	16.735000	-1.369677
	16.740000	-1.314880
	16.745000	-1.389017
	16.750000	-1.440591
	16.755000	-1.369677
	16.760000	-1.318103
	16.765000	-1.392240
	16.770000	-1.443814
	16.775000	-1.372900
	16.780000	-1.324550
	16.785000	-1.392240
	16.790000	-1.447037
	16.795000	-1.379347
	16.800000	-1.327773
	16.805000	-1.398687
	16.810000	-1.450261
	16.815000	-1.385794
	16.820000	-1.327773
	16.825000	-1.395464
	16.830000	-1.450261
	16.835000	-1.385794
	16.840000	-1.334220
	16.845000	-1.392240
	16.850000	-1.450261
	16.855000	-1.382570
	16.860000	-1.330996
	16.865000	-1.398687
	16.870000	-1.450261
	16.875000	-1.385794
	16.880000	-1.327773
	16.885000	-1.401910
	16.890000	-1.453484
	16.895000	-1.389017
	16.900000	-1.327773
	16.905000	-1.401910
	16.910000	-1.459931
	16.915000	-1.392240
	16.920000	-1.330996
	16.925000	-1.401910
	16.930000	-1.459931
	16.935000	-1.398687
	16.940000	-1.337443
	16.945000	-1.398687
	16.950000	-1.463154
	16.955000	-1.392240
	16.960000	-1.334220
	16.965000	-1.411580
	16.970000	-1.459931
	16.975000	-1.395464
	16.980000	-1.340667
	16.985000	-1.414804
	16.990000	-1.466378
	16.995000	-1.395464
	17.000000	-1.343890
	17.005000	-1.408357
	17.010000	-1.469601
	17.015000	-1.398687
	17.020000	-1.340667
	17.025000	-1.408357
	17.030000	-1.463154
	17.035000	-1.398687
	17.040000	-1.343890
	17.045000	-1.408357
	17.050000	-1.463154
	17.055000	-1.392240
	17.060000	-1.343890
	17.065000	-1.401910
	17.070000	-1.463154
	17.075000	-1.398687
	17.080000	-1.337443
	17.085000	-1.398687
	17.090000	-1.459931
	17.095000	-1.392240
	17.100000	-1.337443
	17.105000	-1.398687
	17.110000	-1.459931
	17.115000	-1.389017
	17.120000	-1.334220
	17.125000	-1.395464
	17.130000	-1.456707
	17.135000	-1.389017
	17.140000	-1.334220
	17.145000	-1.395464
	17.150000	-1.453484
	17.155000	-1.392240
	17.160000	-1.327773
	17.165000	-1.392240
	17.170000	-1.453484
	17.175000	-1.382570
	17.180000	-1.327773
	17.185000	-1.395464
	17.190000	-1.456707
	17.195000	-1.385794
	17.200000	-1.330996
	17.205000	-1.389017
	17.210000	-1.443814
	17.215000	-1.385794
	17.220000	-1.324550
	17.225000	-1.389017
	17.230000	-1.453484
	17.235000	-1.385794
	17.240000	-1.324550
	17.245000	-1.389017
	17.250000	-1.447037
	17.255000	-1.389017
	17.260000	-1.324550
	17.265000	-1.389017
	17.270000	-1.450261
	17.275000	-1.385794
	17.280000	-1.321326
	17.285000	-1.385794
	17.290000	-1.447037
	17.295000	-1.382570
	17.300000	-1.327773
	17.305000	-1.389017
	17.310000	-1.447037
	17.315000	-1.382570
	17.320000	-1.314880
	17.325000	-1.379347
	17.330000	-1.440591
	17.335000	-1.376124
	17.340000	-1.314880
	17.345000	-1.372900
	17.350000	-1.437367
	17.355000	-1.379347
	17.360000	-1.311656
	17.365000	-1.369677
	17.370000	-1.434144
	17.375000	-1.363230
	17.380000	-1.301986
	17.385000	-1.360007
	17.390000	-1.424474
	17.395000	-1.360007
	17.400000	-1.292316
	17.405000	-1.356783
	17.410000	-1.411580
	17.415000	-1.353560
	17.420000	-1.289093
	17.425000	-1.347113
	17.430000	-1.411580
	17.435000	-1.350337
	17.440000	-1.279423
	17.445000	-1.340667
	17.450000	-1.395464
	17.455000	-1.334220
	17.460000	-1.272976
	17.465000	-1.318103
	17.470000	-1.389017
	17.475000	-1.321326
	17.480000	-1.263306
	17.485000	-1.311656
	17.490000	-1.379347
	17.495000	-1.308433
	17.500000	-1.237519
	17.505000	-1.292316
	17.510000	-1.356783
	17.515000	-1.285869
	17.520000	-1.214956
	17.525000	-1.269753
	17.530000	-1.327773
	17.535000	-1.260083
	17.540000	-1.195615
	17.545000	-1.247189
	17.550000	-1.301986
	17.555000	-1.231072
	17.560000	-1.160158
	17.565000	-1.202062
	17.570000	-1.266529
	17.575000	-1.198839
	17.580000	-1.134372
	17.585000	-1.192392
	17.590000	-1.250413
	17.595000	-1.189169
	17.600000	-1.124702
	17.605000	-1.189169
	17.610000	-1.256859
	17.615000	-1.198839
	17.620000	-1.137595
	17.625000	-1.198839
	17.630000	-1.266529
	17.635000	-1.208509
	17.640000	-1.153712
	17.645000	-1.218179
	17.650000	-1.285869
	17.655000	-1.224626
	17.660000	-1.163382
	17.665000	-1.231072
	17.670000	-1.298763
	17.675000	-1.250413
	17.680000	-1.185945
	17.685000	-1.253636
	17.690000	-1.327773
	17.695000	-1.272976
	17.700000	-1.221402
	17.705000	-1.272976
	17.710000	-1.340667
	17.715000	-1.279423
	17.720000	-1.211732
	17.725000	-1.272976
	17.730000	-1.343890
	17.735000	-1.282646
	17.740000	-1.211732
	17.745000	-1.263306
	17.750000	-1.330996
	17.755000	-1.276199
	17.760000	-1.205285
	17.765000	-1.253636
	17.770000	-1.318103
	17.775000	-1.263306
	17.780000	-1.185945
	17.785000	-1.237519
	17.790000	-1.301986
	17.795000	-1.240742
	17.800000	-1.166605
	17.805000	-1.214956
	17.810000	-1.276199
	17.815000	-1.211732
	17.820000	-1.127925
	17.825000	-1.185945
	17.830000	-1.234296
	17.835000	-1.169829
	17.840000	-1.098915
	17.845000	-1.144042
	17.850000	-1.211732
	17.855000	-1.153712
	17.860000	-1.082798
	17.865000	-1.131148
	17.870000	-1.198839
	17.875000	-1.147265
	17.880000	-1.079574
	17.885000	-1.131148
	17.890000	-1.192392
	17.895000	-1.147265
	17.900000	-1.076351
	17.905000	-1.134372
	17.910000	-1.202062
	17.915000	-1.153712
	17.920000	-1.082798
	17.925000	-1.137595
	17.930000	-1.198839
	17.935000	-1.150488
	17.940000	-1.082798
	17.945000	-1.137595
	17.950000	-1.208509
	17.955000	-1.153712
	17.960000	-1.086021
	17.965000	-1.144042
	17.970000	-1.208509
	17.975000	-1.153712
	17.980000	-1.092468
	17.985000	-1.144042
	17.990000	-1.218179
	17.995000	-1.169829
	18.000000	-1.102138
	18.005000	-1.156935
	18.010000	-1.231072
	18.015000	-1.173052
	18.020000	-1.108585
	18.025000	-1.160158
	18.030000	-1.234296
	18.035000	-1.182722
	18.040000	-1.115031
	18.045000	-1.169829
	18.050000	-1.237519
	18.055000	-1.185945
	18.060000	-1.111808
	18.065000	-1.173052
	18.070000	-1.240742
	18.075000	-1.195615
	18.080000	-1.131148
	18.085000	-1.179499
	18.090000	-1.243966
	18.095000	-1.198839
	18.100000	-1.131148
	18.105000	-1.185945
	18.110000	-1.253636
	18.115000	-1.208509
	18.120000	-1.137595
	18.125000	-1.192392
	18.130000	-1.269753
	18.135000	-1.214956
	18.140000	-1.144042
	18.145000	-1.198839
	18.150000	-1.272976
	18.155000	-1.218179
	18.160000	-1.153712
	18.165000	-1.208509
	18.170000	-1.282646
	18.175000	-1.234296
	18.180000	-1.163382
	18.185000	-1.214956
	18.190000	-1.289093
	18.195000	-1.243966
	18.200000	-1.176275
	18.205000	-1.231072
	18.210000	-1.301986
	18.215000	-1.250413
	18.220000	-1.189169
	18.225000	-1.243966
	18.230000	-1.311656
	18.235000	-1.266529
	18.240000	-1.198839
	18.245000	-1.247189
	18.250000	-1.324550
	18.255000	-1.276199
	18.260000	-1.211732
	18.265000	-1.256859
	18.270000	-1.334220
	18.275000	-1.289093
	18.280000	-1.221402
	18.285000	-1.269753
	18.290000	-1.347113
	18.295000	-1.301986
	18.300000	-1.227849
	18.305000	-1.282646
	18.310000	-1.360007
	18.315000	-1.305210
	18.320000	-1.243966
	18.325000	-1.289093
	18.330000	-1.363230
	18.335000	-1.314880
	18.340000	-1.247189
	18.345000	-1.295540
	18.350000	-1.372900
	18.355000	-1.324550
	18.360000	-1.253636
	18.365000	-1.298763
	18.370000	-1.379347
	18.375000	-1.334220
	18.380000	-1.256859
	18.385000	-1.311656
	18.390000	-1.382570
	18.395000	-1.340667
	18.400000	-1.266529
	18.405000	-1.321326
	18.410000	-1.392240
	18.415000	-1.347113
	18.420000	-1.276199
	18.425000	-1.327773
	18.430000	-1.398687
	18.435000	-1.353560
	18.440000	-1.285869
	18.445000	-1.330996
	18.450000	-1.408357
	18.455000	-1.369677
	18.460000	-1.289093
	18.465000	-1.334220
	18.470000	-1.408357
	18.475000	-1.372900
	18.480000	-1.292316
	18.485000	-1.334220
	18.490000	-1.418027
	18.495000	-1.372900
	18.500000	-1.298763
	18.505000	-1.343890
	18.510000	-1.418027
	18.515000	-1.372900
	18.520000	-1.301986
	18.525000	-1.347113
	18.530000	-1.418027
	18.535000	-1.369677
	18.540000	-1.298763
	18.545000	-1.347113
	18.550000	-1.421251
	18.555000	-1.372900
	18.560000	-1.305210
	18.565000	-1.353560
	18.570000	-1.424474
	18.575000	-1.379347
	18.580000	-1.301986
	18.585000	-1.343890
	18.590000	-1.430921
	18.595000	-1.382570
	18.600000	-1.301986
	18.605000	-1.347113
	18.610000	-1.430921
	18.615000	-1.379347
	18.620000	-1.301986
	18.625000	-1.347113
	18.630000	-1.424474
	18.635000	-1.385794
	18.640000	-1.305210
	18.645000	-1.350337
	18.650000	-1.424474
	18.655000	-1.379347
	18.660000	-1.308433
	18.665000	-1.353560
	18.670000	-1.430921
	18.675000	-1.385794
	18.680000	-1.305210
	18.685000	-1.347113
	18.690000	-1.430921
	18.695000	-1.389017
	18.700000	-1.314880
	18.705000	-1.350337
	18.710000	-1.427697
	18.715000	-1.389017
	18.720000	-1.311656
	18.725000	-1.353560
	18.730000	-1.427697
	18.735000	-1.385794
	18.740000	-1.314880
	18.745000	-1.350337
	18.750000	-1.430921
	18.755000	-1.385794
	18.760000	-1.305210
	18.765000	-1.350337
	18.770000	-1.434144
	18.775000	-1.385794
	18.780000	-1.308433
	18.785000	-1.350337
	18.790000	-1.430921
	18.795000	-1.392240
	18.800000	-1.305210
	18.805000	-1.347113
	18.810000	-1.424474
	18.815000	-1.385794
	18.820000	-1.311656
	18.825000	-1.350337
	18.830000	-1.430921
	18.835000	-1.382570
	18.840000	-1.318103
	18.845000	-1.353560
	18.850000	-1.430921
	18.855000	-1.389017
	18.860000	-1.311656
	18.865000	-1.350337
	18.870000	-1.430921
	18.875000	-1.395464
	18.880000	-1.314880
	18.885000	-1.363230
	18.890000	-1.430921
	18.895000	-1.389017
	18.900000	-1.314880
	18.905000	-1.350337
	18.910000	-1.434144
	18.915000	-1.389017
	18.920000	-1.318103
	18.925000	-1.356783
	18.930000	-1.434144
	18.935000	-1.395464
	18.940000	-1.321326
	18.945000	-1.347113
	18.950000	-1.427697
	18.955000	-1.395464
	18.960000	-1.314880
	18.965000	-1.353560
	18.970000	-1.430921
	18.975000	-1.392240
	18.980000	-1.314880
	18.985000	-1.347113
	18.990000	-1.424474
	18.995000	-1.392240
	19.000000	-1.311656
	19.005000	-1.350337
	19.010000	-1.427697
	19.015000	-1.392240
	19.020000	-1.308433
	19.025000	-1.343890
	19.030000	-1.424474
	19.035000	-1.389017
	19.040000	-1.308433
	19.045000	-1.340667
	19.050000	-1.418027
	19.055000	-1.385794
	19.060000	-1.305210
	19.065000	-1.343890
	19.070000	-1.421251
	19.075000	-1.382570
	19.080000	-1.305210
	19.085000	-1.340667
	19.090000	-1.414804
	19.095000	-1.379347
	19.100000	-1.305210
	19.105000	-1.340667
	19.110000	-1.421251
	19.115000	-1.382570
	19.120000	-1.301986
	19.125000	-1.340667
	19.130000	-1.421251
	19.135000	-1.379347
	19.140000	-1.305210
	19.145000	-1.340667
	19.150000	-1.421251
	19.155000	-1.385794
	19.160000	-1.295540
	19.165000	-1.330996
	19.170000	-1.424474
	19.175000	-1.376124
	19.180000	-1.305210
	19.185000	-1.334220
	19.190000	-1.421251
	19.195000	-1.389017
	19.200000	-1.298763
	19.205000	-1.334220
	19.210000	-1.421251
	19.215000	-1.389017
	19.220000	-1.295540
	19.225000	-1.337443
	19.230000	-1.424474
	19.235000	-1.382570
	19.240000	-1.305210
	19.245000	-1.337443
	19.250000	-1.421251
	19.255000	-1.382570
	19.260000	-1.301986
	19.265000	-1.334220
	19.270000	-1.418027
	19.275000	-1.389017
	19.280000	-1.298763
	19.285000	-1.330996
	19.290000	-1.414804
	19.295000	-1.382570
	19.300000	-1.301986
	19.305000	-1.334220
	19.310000	-1.418027
	19.315000	-1.379347
	19.320000	-1.301986
	19.325000	-1.337443
	19.330000	-1.418027
	19.335000	-1.382570
	19.340000	-1.298763
	19.345000	-1.337443
	19.350000	-1.414804
	19.355000	-1.382570
	19.360000	-1.298763
	19.365000	-1.334220
	19.370000	-1.411580
	19.375000	-1.379347
	19.380000	-1.295540
	19.385000	-1.327773
	19.390000	-1.411580
	19.395000	-1.376124
	19.400000	-1.295540
	19.405000	-1.327773
	19.410000	-1.411580
	19.415000	-1.379347
	19.420000	-1.301986
	19.425000	-1.330996
	19.430000	-1.411580
	19.435000	-1.385794
	19.440000	-1.295540
	19.445000	-1.330996
	19.450000	-1.411580
	19.455000	-1.382570
	19.460000	-1.295540
	19.465000	-1.327773
	19.470000	-1.418027
	19.475000	-1.379347
	19.480000	-1.298763
	19.485000	-1.321326
	19.490000	-1.414804
	19.495000	-1.382570
	19.500000	-1.295540
	19.505000	-1.324550
	19.510000	-1.408357
	19.515000	-1.385794
	19.520000	-1.298763
	19.525000	-1.324550
	19.530000	-1.414804
	19.535000	-1.376124
	19.540000	-1.295540
	19.545000	-1.327773
	19.550000	-1.411580
	19.555000	-1.382570
	19.560000	-1.298763
	19.565000	-1.324550
	19.570000	-1.411580
	19.575000	-1.385794
	19.580000	-1.295540
	19.585000	-1.330996
	19.590000	-1.414804
	19.595000	-1.379347
	19.600000	-1.292316
	19.605000	-1.324550
	19.610000	-1.411580
	19.615000	-1.382570
	19.620000	-1.298763
	19.625000	-1.324550
	19.630000	-1.405134
	19.635000	-1.382570
	19.640000	-1.292316
	19.645000	-1.324550
	19.650000	-1.411580
	19.655000	-1.382570
	19.660000	-1.289093
	19.665000	-1.318103
	19.670000	-1.405134
	19.675000	-1.382570
	19.680000	-1.292316
	19.685000	-1.321326
	19.690000	-1.405134
	19.695000	-1.379347
	19.700000	-1.295540
	19.705000	-1.318103
	19.710000	-1.408357
	19.715000	-1.376124
	19.720000	-1.292316
	19.725000	-1.318103
	19.730000	-1.405134
	19.735000	-1.379347
	19.740000	-1.295540
	19.745000	-1.321326
	19.750000	-1.408357
	19.755000	-1.379347
	19.760000	-1.295540
	19.765000	-1.321326
	19.770000	-1.408357
	19.775000	-1.382570
	19.780000	-1.301986
	19.785000	-1.321326
	19.790000	-1.408357
	19.795000	-1.385794
	19.800000	-1.292316
	19.805000	-1.318103
	19.810000	-1.405134
	19.815000	-1.385794
	19.820000	-1.298763
	19.825000	-1.321326
	19.830000	-1.414804
	19.835000	-1.385794
	19.840000	-1.298763
	19.845000	-1.327773
	19.850000	-1.405134
	19.855000	-1.389017
	19.860000	-1.295540
	19.865000	-1.324550
	19.870000	-1.411580
	19.875000	-1.385794
	19.880000	-1.301986
	19.885000	-1.327773
	19.890000	-1.408357
	19.895000	-1.392240
	19.900000	-1.295540
	19.905000	-1.324550
	19.910000	-1.405134
	19.915000	-1.385794
	19.920000	-1.305210
	19.925000	-1.321326
	19.930000	-1.408357
	19.935000	-1.379347
	19.940000	-1.301986
	19.945000	-1.321326
	19.950000	-1.411580
	19.955000	-1.385794
	19.960000	-1.298763
	19.965000	-1.321326
	19.970000	-1.398687
	19.975000	-1.382570
	19.980000	-1.295540
	19.985000	-1.321326
	19.990000	-1.411580
	19.995000	-1.379347
	20.000000	-1.292316
	20.005000	-1.321326
	20.010000	-1.408357
	20.015000	-1.385794
	20.020000	-1.298763
	20.025000	-1.321326
	20.030000	-1.405134
	20.035000	-1.385794
	20.040000	-1.298763
	20.045000	-1.324550
	20.050000	-1.408357
	20.055000	-1.385794
	20.060000	-1.298763
	20.065000	-1.318103
	20.070000	-1.405134
	20.075000	-1.389017
	20.080000	-1.301986
	20.085000	-1.324550
	20.090000	-1.411580
	20.095000	-1.389017
	20.100000	-1.301986
	20.105000	-1.327773
	20.110000	-1.408357
	20.115000	-1.389017
	20.120000	-1.305210
	20.125000	-1.321326
	20.130000	-1.408357
	20.135000	-1.392240
	20.140000	-1.305210
	20.145000	-1.324550
	20.150000	-1.414804
	20.155000	-1.392240
	20.160000	-1.311656
	20.165000	-1.321326
	20.170000	-1.411580
	20.175000	-1.395464
	20.180000	-1.311656
	20.185000	-1.327773
	20.190000	-1.411580
	20.195000	-1.392240
	20.200000	-1.311656
	20.205000	-1.324550
	20.210000	-1.411580
	20.215000	-1.395464
	20.220000	-1.308433
	20.225000	-1.334220
	20.230000	-1.418027
	20.235000	-1.398687
	20.240000	-1.314880
	20.245000	-1.324550
	20.250000	-1.411580
	20.255000	-1.395464
	20.260000	-1.301986
	20.265000	-1.327773
	20.270000	-1.411580
	20.275000	-1.398687
	20.280000	-1.311656
	20.285000	-1.321326
	20.290000	-1.411580
	20.295000	-1.395464
	20.300000	-1.301986
	20.305000	-1.318103
	20.310000	-1.408357
	20.315000	-1.395464
	20.320000	-1.301986
	20.325000	-1.324550
	20.330000	-1.411580
	20.335000	-1.395464
	20.340000	-1.308433
	20.345000	-1.321326
	20.350000	-1.411580
	20.355000	-1.392240
	20.360000	-1.305210
	20.365000	-1.318103
	20.370000	-1.405134
	20.375000	-1.392240
	20.380000	-1.305210
	20.385000	-1.318103
	20.390000	-1.408357
	20.395000	-1.385794
	20.400000	-1.308433
	20.405000	-1.318103
	20.410000	-1.408357
	20.415000	-1.392240
	20.420000	-1.308433
	20.425000	-1.314880
	20.430000	-1.408357
	20.435000	-1.392240
	20.440000	-1.305210
	20.445000	-1.321326
	20.450000	-1.405134
	20.455000	-1.389017
	20.460000	-1.298763
	20.465000	-1.314880
	20.470000	-1.405134
	20.475000	-1.392240
	20.480000	-1.301986
	20.485000	-1.318103
	20.490000	-1.408357
	20.495000	-1.392240
	20.500000	-1.301986
	20.505000	-1.321326
	20.510000	-1.408357
	20.515000	-1.392240
	20.520000	-1.308433
	20.525000	-1.311656
	20.530000	-1.408357
	20.535000	-1.389017
	20.540000	-1.311656
	20.545000	-1.318103
	20.550000	-1.408357
	20.555000	-1.392240
	20.560000	-1.301986
	20.565000	-1.321326
	20.570000	-1.408357
	20.575000	-1.392240
	20.580000	-1.301986
	20.585000	-1.308433
	20.590000	-1.405134
	20.595000	-1.392240
	20.600000	-1.305210
	20.605000	-1.314880
	20.610000	-1.398687
	20.615000	-1.392240
	20.620000	-1.301986
	20.625000	-1.321326
	20.630000	-1.408357
	20.635000	-1.395464
	20.640000	-1.308433
	20.645000	-1.311656
	20.650000	-1.405134
	20.655000	-1.398687
	20.660000	-1.305210
	20.665000	-1.314880
	20.670000	-1.398687
	20.675000	-1.392240
	20.680000	-1.301986
	20.685000	-1.308433
	20.690000	-1.405134
	20.695000	-1.392240
	20.700000	-1.305210
	20.705000	-1.308433
	20.710000	-1.408357
	20.715000	-1.389017
	20.720000	-1.308433
	20.725000	-1.311656
	20.730000	-1.401910
	20.735000	-1.392240
	20.740000	-1.308433
	20.745000	-1.318103
	20.750000	-1.408357
	20.755000	-1.395464
	20.760000	-1.308433
	20.765000	-1.314880
	20.770000	-1.405134
	20.775000	-1.389017
	20.780000	-1.308433
	20.785000	-1.318103
	20.790000	-1.405134
	20.795000	-1.389017
	20.800000	-1.305210
	20.805000	-1.308433
	20.810000	-1.405134
	20.815000	-1.392240
	20.820000	-1.305210
	20.825000	-1.311656
	20.830000	-1.405134
	20.835000	-1.392240
	20.840000	-1.301986
	20.845000	-1.308433
	20.850000	-1.401910
	20.855000	-1.389017
	20.860000	-1.298763
	20.865000	-1.308433
	20.870000	-1.395464
	20.875000	-1.385794
	20.880000	-1.295540
	20.885000	-1.301986
	20.890000	-1.385794
	20.895000	-1.392240
	20.900000	-1.292316
	20.905000	-1.305210
	20.910000	-1.395464
	20.915000	-1.385794
	20.920000	-1.292316
	20.925000	-1.298763
	20.930000	-1.389017
	20.935000	-1.379347
	20.940000	-1.298763
	20.945000	-1.301986
	20.950000	-1.395464
	20.955000	-1.382570
	20.960000	-1.298763
	20.965000	-1.308433
	20.970000	-1.398687
	20.975000	-1.389017
	20.980000	-1.305210
	20.985000	-1.305210
	20.990000	-1.401910
	20.995000	-1.389017
	21.000000	-1.301986
	21.005000	-1.305210
	21.010000	-1.395464
	21.015000	-1.398687
	21.020000	-1.301986
	21.025000	-1.311656
	21.030000	-1.401910
	21.035000	-1.392240
	21.040000	-1.305210
	21.045000	-1.311656
	21.050000	-1.398687
	21.055000	-1.398687
	21.060000	-1.305210
	21.065000	-1.308433
	21.070000	-1.401910
	21.075000	-1.395464
	21.080000	-1.301986
	21.085000	-1.308433
	21.090000	-1.401910
	21.095000	-1.398687
	21.100000	-1.308433
	21.105000	-1.308433
	21.110000	-1.398687
	21.115000	-1.395464
	21.120000	-1.301986
	21.125000	-1.301986
	21.130000	-1.398687
	21.135000	-1.395464
	21.140000	-1.305210
	21.145000	-1.308433
	21.150000	-1.392240
	21.155000	-1.395464
	21.160000	-1.305210
	21.165000	-1.301986
	21.170000	-1.401910
	21.175000	-1.395464
	21.180000	-1.305210
	21.185000	-1.308433
	21.190000	-1.392240
	21.195000	-1.389017
	21.200000	-1.301986
	21.205000	-1.305210
	21.210000	-1.389017
	21.215000	-1.385794
	21.220000	-1.298763
	21.225000	-1.301986
	21.230000	-1.392240
	21.235000	-1.389017
	21.240000	-1.298763
	21.245000	-1.301986
	21.250000	-1.392240
	21.255000	-1.392240
	21.260000	-1.301986
	21.265000	-1.295540
	21.270000	-1.398687
	21.275000	-1.395464
	21.280000	-1.305210
	21.285000	-1.298763
	21.290000	-1.401910
	21.295000	-1.401910
	21.300000	-1.311656
	21.305000	-1.305210
	21.310000	-1.398687
	21.315000	-1.401910
	21.320000	-1.311656
	21.325000	-1.314880
	21.330000	-1.405134
	21.335000	-1.401910
	21.340000	-1.318103
	21.345000	-1.305210
	21.350000	-1.405134
	21.355000	-1.405134
	21.360000	-1.314880
	21.365000	-1.314880
	21.370000	-1.405134
	21.375000	-1.401910
	21.380000	-1.308433
	21.385000	-1.308433
	21.390000	-1.389017
	21.395000	-1.389017
	21.400000	-1.292316
	21.405000	-1.285869
	21.410000	-1.376124
	21.415000	-1.372900
	21.420000	-1.276199
	21.425000	-1.269753
	21.430000	-1.363230
