2024/7/11 	 17:48:44 
 This file comes from Vt only measurement 	 1.000000E-1 
 Voltage Sensitivity 	 0.000000E+0 
 Sampling rate 	 200 
 Number of samples per channel 	 -1 
 No filter from Labview 	 	 	 
 	 
 ***End_of_Header*** 
 	 Time 	  Voltage 	 Filtered Voltage 	 
	0.000000	2.037414
	0.005000	2.050307
	0.010000	1.979393
	0.015000	1.969723
	0.020000	2.034190
	0.025000	2.050307
	0.030000	1.982617
	0.035000	1.969723
	0.040000	2.040637
	0.045000	2.053530
	0.050000	1.985840
	0.055000	1.972946
	0.060000	2.037414
	0.065000	2.047084
	0.070000	1.979393
	0.075000	1.979393
	0.080000	2.047084
	0.085000	2.050307
	0.090000	1.989063
	0.095000	1.972946
	0.100000	2.037414
	0.105000	2.050307
	0.110000	1.979393
	0.115000	1.969723
	0.120000	2.040637
	0.125000	2.053530
	0.130000	1.985840
	0.135000	1.979393
	0.140000	2.043860
	0.145000	2.053530
	0.150000	1.985840
	0.155000	1.976170
	0.160000	2.043860
	0.165000	2.047084
	0.170000	1.985840
	0.175000	1.972946
	0.180000	2.043860
	0.185000	2.053530
	0.190000	1.985840
	0.195000	1.979393
	0.200000	2.037414
	0.205000	2.050307
	0.210000	1.992287
	0.215000	1.979393
	0.220000	2.040637
	0.225000	2.053530
	0.230000	1.985840
	0.235000	1.979393
	0.240000	2.047084
	0.245000	2.053530
	0.250000	1.982617
	0.255000	1.972946
	0.260000	2.053530
	0.265000	2.056754
	0.270000	1.992287
	0.275000	1.985840
	0.280000	2.043860
	0.285000	2.053530
	0.290000	1.992287
	0.295000	1.985840
	0.300000	2.047084
	0.305000	2.056754
	0.310000	1.992287
	0.315000	1.985840
	0.320000	2.043860
	0.325000	2.059977
	0.330000	1.998733
	0.335000	1.982617
	0.340000	2.053530
	0.345000	2.059977
	0.350000	1.992287
	0.355000	1.982617
	0.360000	2.047084
	0.365000	2.066424
	0.370000	1.985840
	0.375000	1.982617
	0.380000	2.053530
	0.385000	2.056754
	0.390000	1.995510
	0.395000	1.985840
	0.400000	2.047084
	0.405000	2.063200
	0.410000	1.998733
	0.415000	1.982617
	0.420000	2.047084
	0.425000	2.059977
	0.430000	1.992287
	0.435000	1.995510
	0.440000	2.050307
	0.445000	2.056754
	0.450000	1.995510
	0.455000	1.985840
	0.460000	2.043860
	0.465000	2.063200
	0.470000	2.001957
	0.475000	1.979393
	0.480000	2.056754
	0.485000	2.063200
	0.490000	1.995510
	0.495000	1.989063
	0.500000	2.056754
	0.505000	2.059977
	0.510000	1.995510
	0.515000	1.989063
	0.520000	2.050307
	0.525000	2.063200
	0.530000	1.998733
	0.535000	1.998733
	0.540000	2.053530
	0.545000	2.063200
	0.550000	1.998733
	0.555000	1.989063
	0.560000	2.056754
	0.565000	2.066424
	0.570000	1.995510
	0.575000	1.989063
	0.580000	2.053530
	0.585000	2.059977
	0.590000	1.998733
	0.595000	1.992287
	0.600000	2.059977
	0.605000	2.063200
	0.610000	1.998733
	0.615000	1.995510
	0.620000	2.059977
	0.625000	2.063200
	0.630000	1.995510
	0.635000	1.992287
	0.640000	2.056754
	0.645000	2.072871
	0.650000	2.001957
	0.655000	1.992287
	0.660000	2.063200
	0.665000	2.072871
	0.670000	2.005180
	0.675000	1.995510
	0.680000	2.059977
	0.685000	2.069647
	0.690000	2.001957
	0.695000	1.995510
	0.700000	2.059977
	0.705000	2.066424
	0.710000	1.998733
	0.715000	1.995510
	0.720000	2.069647
	0.725000	2.069647
	0.730000	1.998733
	0.735000	2.001957
	0.740000	2.056754
	0.745000	2.066424
	0.750000	2.001957
	0.755000	1.995510
	0.760000	2.059977
	0.765000	2.066424
	0.770000	2.005180
	0.775000	1.998733
	0.780000	2.063200
	0.785000	2.069647
	0.790000	2.008403
	0.795000	1.995510
	0.800000	2.063200
	0.805000	2.072871
	0.810000	1.998733
	0.815000	1.998733
	0.820000	2.063200
	0.825000	2.069647
	0.830000	2.005180
	0.835000	1.998733
	0.840000	2.066424
	0.845000	2.079317
	0.850000	2.001957
	0.855000	2.001957
	0.860000	2.066424
	0.865000	2.072871
	0.870000	2.001957
	0.875000	2.001957
	0.880000	2.066424
	0.885000	2.076094
	0.890000	2.014850
	0.895000	2.001957
	0.900000	2.066424
	0.905000	2.076094
	0.910000	2.014850
	0.915000	2.001957
	0.920000	2.066424
	0.925000	2.076094
	0.930000	2.005180
	0.935000	1.995510
	0.940000	2.059977
	0.945000	2.069647
	0.950000	2.008403
	0.955000	2.005180
	0.960000	2.076094
	0.965000	2.079317
	0.970000	2.008403
	0.975000	2.005180
	0.980000	2.066424
	0.985000	2.072871
	0.990000	2.005180
	0.995000	2.005180
	1.000000	2.069647
	1.005000	2.066424
	1.010000	2.001957
	1.015000	1.995510
	1.020000	2.066424
	1.025000	2.076094
	1.030000	2.001957
	1.035000	2.001957
	1.040000	2.066424
	1.045000	2.072871
	1.050000	2.005180
	1.055000	1.998733
	1.060000	2.069647
	1.065000	2.069647
	1.070000	1.998733
	1.075000	2.005180
	1.080000	2.072871
	1.085000	2.076094
	1.090000	2.011627
	1.095000	2.005180
	1.100000	2.069647
	1.105000	2.072871
	1.110000	2.005180
	1.115000	1.998733
	1.120000	2.063200
	1.125000	2.069647
	1.130000	2.008403
	1.135000	2.005180
	1.140000	2.076094
	1.145000	2.069647
	1.150000	2.008403
	1.155000	2.005180
	1.160000	2.069647
	1.165000	2.072871
	1.170000	2.001957
	1.175000	1.995510
	1.180000	2.069647
	1.185000	2.072871
	1.190000	2.001957
	1.195000	1.998733
	1.200000	2.066424
	1.205000	2.076094
	1.210000	2.008403
	1.215000	1.995510
	1.220000	2.069647
	1.225000	2.066424
	1.230000	2.005180
	1.235000	2.005180
	1.240000	2.069647
	1.245000	2.076094
	1.250000	2.008403
	1.255000	2.001957
	1.260000	2.069647
	1.265000	2.072871
	1.270000	2.001957
	1.275000	2.005180
	1.280000	2.069647
	1.285000	2.079317
	1.290000	2.008403
	1.295000	2.005180
	1.300000	2.066424
	1.305000	2.076094
	1.310000	2.005180
	1.315000	2.001957
	1.320000	2.069647
	1.325000	2.072871
	1.330000	2.008403
	1.335000	2.005180
	1.340000	2.066424
	1.345000	2.072871
	1.350000	2.005180
	1.355000	2.011627
	1.360000	2.076094
	1.365000	2.076094
	1.370000	2.008403
	1.375000	2.014850
	1.380000	2.069647
	1.385000	2.079317
	1.390000	2.014850
	1.395000	2.011627
	1.400000	2.079317
	1.405000	2.076094
	1.410000	2.011627
	1.415000	2.008403
	1.420000	2.082541
	1.425000	2.079317
	1.430000	2.021297
	1.435000	2.011627
	1.440000	2.079317
	1.445000	2.085764
	1.450000	2.011627
	1.455000	2.018073
	1.460000	2.082541
	1.465000	2.088987
	1.470000	2.021297
	1.475000	2.021297
	1.480000	2.092211
	1.485000	2.092211
	1.490000	2.024520
	1.495000	2.024520
	1.500000	2.098657
	1.505000	2.095434
	1.510000	2.027744
	1.515000	2.030967
	1.520000	2.095434
	1.525000	2.098657
	1.530000	2.040637
	1.535000	2.030967
	1.540000	2.105104
	1.545000	2.105104
	1.550000	2.037414
	1.555000	2.030967
	1.560000	2.105104
	1.565000	2.111551
	1.570000	2.043860
	1.575000	2.043860
	1.580000	2.108328
	1.585000	2.108328
	1.590000	2.043860
	1.595000	2.047084
	1.600000	2.114774
	1.605000	2.121221
	1.610000	2.053530
	1.615000	2.056754
	1.620000	2.121221
	1.625000	2.127668
	1.630000	2.063200
	1.635000	2.056754
	1.640000	2.124444
	1.645000	2.134114
	1.650000	2.069647
	1.655000	2.063200
	1.660000	2.134114
	1.665000	2.143784
	1.670000	2.079317
	1.675000	2.076094
	1.680000	2.143784
	1.685000	2.150231
	1.690000	2.088987
	1.695000	2.095434
	1.700000	2.159901
	1.705000	2.159901
	1.710000	2.092211
	1.715000	2.098657
	1.720000	2.179241
	1.725000	2.172795
	1.730000	2.105104
	1.735000	2.114774
	1.740000	2.182465
	1.745000	2.182465
	1.750000	2.121221
	1.755000	2.121221
	1.760000	2.192135
	1.765000	2.188911
	1.770000	2.127668
	1.775000	2.130891
	1.780000	2.195358
	1.785000	2.195358
	1.790000	2.140561
	1.795000	2.137338
	1.800000	2.198582
	1.805000	2.205028
	1.810000	2.147008
	1.815000	2.147008
	1.820000	2.214698
	1.825000	2.214698
	1.830000	2.153455
	1.835000	2.150231
	1.840000	2.221145
	1.845000	2.214698
	1.850000	2.153455
	1.855000	2.159901
	1.860000	2.211475
	1.865000	2.221145
	1.870000	2.156678
	1.875000	2.153455
	1.880000	2.217922
	1.885000	2.221145
	1.890000	2.156678
	1.895000	2.159901
	1.900000	2.221145
	1.905000	2.221145
	1.910000	2.156678
	1.915000	2.156678
	1.920000	2.230815
	1.925000	2.221145
	1.930000	2.159901
	1.935000	2.163125
	1.940000	2.230815
	1.945000	2.224368
	1.950000	2.163125
	1.955000	2.163125
	1.960000	2.227592
	1.965000	2.227592
	1.970000	2.166348
	1.975000	2.163125
	1.980000	2.230815
	1.985000	2.227592
	1.990000	2.166348
	1.995000	2.172795
	2.000000	2.240485
	2.005000	2.234039
	2.010000	2.169571
	2.015000	2.169571
	2.020000	2.234039
	2.025000	2.230815
	2.030000	2.169571
	2.035000	2.169571
	2.040000	2.230815
	2.045000	2.227592
	2.050000	2.163125
	2.055000	2.169571
	2.060000	2.234039
	2.065000	2.230815
	2.070000	2.159901
	2.075000	2.163125
	2.080000	2.224368
	2.085000	2.224368
	2.090000	2.156678
	2.095000	2.172795
	2.100000	2.224368
	2.105000	2.224368
	2.110000	2.153455
	2.115000	2.153455
	2.120000	2.221145
	2.125000	2.214698
	2.130000	2.147008
	2.135000	2.156678
	2.140000	2.217922
	2.145000	2.208252
	2.150000	2.143784
	2.155000	2.147008
	2.160000	2.208252
	2.165000	2.211475
	2.170000	2.137338
	2.175000	2.147008
	2.180000	2.208252
	2.185000	2.205028
	2.190000	2.134114
	2.195000	2.140561
	2.200000	2.201805
	2.205000	2.192135
	2.210000	2.134114
	2.215000	2.127668
	2.220000	2.201805
	2.225000	2.198582
	2.230000	2.140561
	2.235000	2.140561
	2.240000	2.205028
	2.245000	2.205028
	2.250000	2.143784
	2.255000	2.156678
	2.260000	2.217922
	2.265000	2.227592
	2.270000	2.179241
	2.275000	2.192135
	2.280000	2.275942
	2.285000	2.314622
	2.290000	2.272719
	2.295000	2.304952
	2.300000	2.401653
	2.305000	2.427440
	2.310000	2.388760
	2.315000	2.417770
	2.320000	2.495131
	2.325000	2.524141
	2.330000	2.479014
	2.335000	2.501577
	2.340000	2.595055
	2.345000	2.617618
	2.350000	2.569268
	2.355000	2.591831
	2.360000	2.669192
	2.365000	2.688532
	2.370000	2.643405
	2.375000	2.662745
	2.380000	2.736883
	2.385000	2.749776
	2.390000	2.701426
	2.395000	2.723989
	2.400000	2.788456
	2.405000	2.801350
	2.410000	2.749776
	2.415000	2.756223
	2.420000	2.823913
	2.425000	2.823913
	2.430000	2.756223
	2.435000	2.762669
	2.440000	2.823913
	2.445000	2.817466
	2.450000	2.762669
	2.455000	2.759446
	2.460000	2.814243
	2.465000	2.804573
	2.470000	2.743329
	2.475000	2.746553
	2.480000	2.794903
	2.485000	2.785233
	2.490000	2.723989
	2.495000	2.727212
	2.500000	2.775563
	2.505000	2.772339
	2.510000	2.707872
	2.515000	2.711096
	2.520000	2.772339
	2.525000	2.769116
	2.530000	2.717542
	2.535000	2.723989
	2.540000	2.788456
	2.545000	2.798126
	2.550000	2.746553
	2.555000	2.762669
	2.560000	2.830360
	2.565000	2.836807
	2.570000	2.785233
	2.575000	2.794903
	2.580000	2.846477
	2.585000	2.852923
	2.590000	2.791680
	2.595000	2.794903
	2.600000	2.843253
	2.605000	2.830360
	2.610000	2.772339
	2.615000	2.778786
	2.620000	2.827137
	2.625000	2.814243
	2.630000	2.740106
	2.635000	2.736883
	2.640000	2.791680
	2.645000	2.772339
	2.650000	2.701426
	2.655000	2.691755
	2.660000	2.743329
	2.665000	2.730436
	2.670000	2.659522
	2.675000	2.649852
	2.680000	2.701426
	2.685000	2.682085
	2.690000	2.611172
	2.695000	2.614395
	2.700000	2.669192
	2.705000	2.656299
	2.710000	2.582161
	2.715000	2.588608
	2.720000	2.640182
	2.725000	2.630512
	2.730000	2.572491
	2.735000	2.572491
	2.740000	2.627288
	2.745000	2.614395
	2.750000	2.553151
	2.755000	2.559598
	2.760000	2.614395
	2.765000	2.601501
	2.770000	2.546704
	2.775000	2.543481
	2.780000	2.601501
	2.785000	2.598278
	2.790000	2.537034
	2.795000	2.533811
	2.800000	2.591831
	2.805000	2.572491
	2.810000	2.511247
	2.815000	2.511247
	2.820000	2.562821
	2.825000	2.553151
	2.830000	2.485461
	2.835000	2.485461
	2.840000	2.537034
	2.845000	2.524141
	2.850000	2.459674
	2.855000	2.459674
	2.860000	2.511247
	2.865000	2.498354
	2.870000	2.430663
	2.875000	2.437110
	2.880000	2.482237
	2.885000	2.472567
	2.890000	2.404877
	2.895000	2.398430
	2.900000	2.446780
	2.905000	2.430663
	2.910000	2.359750
	2.915000	2.359750
	2.920000	2.408100
	2.925000	2.388760
	2.930000	2.317846
	2.935000	2.314622
	2.940000	2.362973
	2.945000	2.346856
	2.950000	2.282389
	2.955000	2.272719
	2.960000	2.327516
	2.965000	2.304952
	2.970000	2.240485
	2.975000	2.234039
	2.980000	2.285612
	2.985000	2.263049
	2.990000	2.198582
	2.995000	2.188911
	3.000000	2.246932
	3.005000	2.227592
	3.010000	2.159901
	3.015000	2.150231
	3.020000	2.198582
	3.025000	2.185688
	3.030000	2.111551
	3.035000	2.111551
	3.040000	2.163125
	3.045000	2.143784
	3.050000	2.072871
	3.055000	2.076094
	3.060000	2.117998
	3.065000	2.101881
	3.070000	2.030967
	3.075000	2.030967
	3.080000	2.082541
	3.085000	2.066424
	3.090000	1.995510
	3.095000	1.992287
	3.100000	2.043860
	3.105000	2.018073
	3.110000	1.953606
	3.115000	1.953606
	3.120000	2.001957
	3.125000	1.985840
	3.130000	1.914926
	3.135000	1.921373
	3.140000	1.966500
	3.145000	1.950383
	3.150000	1.885916
	3.155000	1.882692
	3.160000	1.940713
	3.165000	1.931043
	3.170000	1.860129
	3.175000	1.863352
	3.180000	1.918149
	3.185000	1.908479
	3.190000	1.837565
	3.195000	1.844012
	3.200000	1.898809
	3.205000	1.879469
	3.210000	1.818225
	3.215000	1.821449
	3.220000	1.879469
	3.225000	1.863352
	3.230000	1.792438
	3.235000	1.802108
	3.240000	1.856906
	3.245000	1.850459
	3.250000	1.773098
	3.255000	1.779545
	3.260000	1.837565
	3.265000	1.821449
	3.270000	1.756981
	3.275000	1.766651
	3.280000	1.821449
	3.285000	1.805332
	3.290000	1.737641
	3.295000	1.750535
	3.300000	1.808555
	3.305000	1.789215
	3.310000	1.731195
	3.315000	1.737641
	3.320000	1.795662
	3.325000	1.782768
	3.330000	1.715078
	3.335000	1.724748
	3.340000	1.789215
	3.345000	1.779545
	3.350000	1.708631
	3.355000	1.721524
	3.360000	1.782768
	3.365000	1.769875
	3.370000	1.708631
	3.375000	1.718301
	3.380000	1.782768
	3.385000	1.766651
	3.390000	1.705408
	3.395000	1.715078
	3.400000	1.776322
	3.405000	1.766651
	3.410000	1.702184
	3.415000	1.715078
	3.420000	1.779545
	3.425000	1.773098
	3.430000	1.711854
	3.435000	1.711854
	3.440000	1.773098
	3.445000	1.763428
	3.450000	1.702184
	3.455000	1.721524
	3.460000	1.785992
	3.465000	1.773098
	3.470000	1.702184
	3.475000	1.721524
	3.480000	1.785992
	3.485000	1.773098
	3.490000	1.708631
	3.495000	1.724748
	3.500000	1.789215
	3.505000	1.779545
	3.510000	1.708631
	3.515000	1.731195
	3.520000	1.792438
	3.525000	1.779545
	3.530000	1.711854
	3.535000	1.737641
	3.540000	1.798885
	3.545000	1.789215
	3.550000	1.721524
	3.555000	1.737641
	3.560000	1.802108
	3.565000	1.785992
	3.570000	1.731195
	3.575000	1.744088
	3.580000	1.808555
	3.585000	1.792438
	3.590000	1.731195
	3.595000	1.756981
	3.600000	1.815002
	3.605000	1.802108
	3.610000	1.737641
	3.615000	1.753758
	3.620000	1.815002
	3.625000	1.802108
	3.630000	1.747311
	3.635000	1.753758
	3.640000	1.821449
	3.645000	1.815002
	3.650000	1.740865
	3.655000	1.763428
	3.660000	1.824672
	3.665000	1.815002
	3.670000	1.740865
	3.675000	1.766651
	3.680000	1.827895
	3.685000	1.818225
	3.690000	1.750535
	3.695000	1.769875
	3.700000	1.837565
	3.705000	1.821449
	3.710000	1.756981
	3.715000	1.776322
	3.720000	1.837565
	3.725000	1.827895
	3.730000	1.753758
	3.735000	1.776322
	3.740000	1.847235
	3.745000	1.831119
	3.750000	1.766651
	3.755000	1.789215
	3.760000	1.847235
	3.765000	1.831119
	3.770000	1.763428
	3.775000	1.789215
	3.780000	1.844012
	3.785000	1.837565
	3.790000	1.769875
	3.795000	1.789215
	3.800000	1.847235
	3.805000	1.834342
	3.810000	1.773098
	3.815000	1.792438
	3.820000	1.860129
	3.825000	1.840789
	3.830000	1.769875
	3.835000	1.798885
	3.840000	1.863352
	3.845000	1.840789
	3.850000	1.782768
	3.855000	1.792438
	3.860000	1.866576
	3.865000	1.840789
	3.870000	1.782768
	3.875000	1.798885
	3.880000	1.866576
	3.885000	1.850459
	3.890000	1.785992
	3.895000	1.808555
	3.900000	1.873022
	3.905000	1.856906
	3.910000	1.792438
	3.915000	1.802108
	3.920000	1.876246
	3.925000	1.853682
	3.930000	1.789215
	3.935000	1.811778
	3.940000	1.869799
	3.945000	1.860129
	3.950000	1.802108
	3.955000	1.815002
	3.960000	1.876246
	3.965000	1.863352
	3.970000	1.798885
	3.975000	1.815002
	3.980000	1.882692
	3.985000	1.863352
	3.990000	1.798885
	3.995000	1.818225
	4.000000	1.885916
	4.005000	1.866576
	4.010000	1.798885
	4.015000	1.818225
	4.020000	1.885916
	4.025000	1.860129
	4.030000	1.805332
	4.035000	1.821449
	4.040000	1.889139
	4.045000	1.873022
	4.050000	1.805332
	4.055000	1.827895
	4.060000	1.885916
	4.065000	1.863352
	4.070000	1.802108
	4.075000	1.827895
	4.080000	1.889139
	4.085000	1.866576
	4.090000	1.805332
	4.095000	1.824672
	4.100000	1.892362
	4.105000	1.876246
	4.110000	1.805332
	4.115000	1.821449
	4.120000	1.892362
	4.125000	1.869799
	4.130000	1.805332
	4.135000	1.824672
	4.140000	1.889139
	4.145000	1.873022
	4.150000	1.811778
	4.155000	1.831119
	4.160000	1.889139
	4.165000	1.873022
	4.170000	1.808555
	4.175000	1.831119
	4.180000	1.898809
	4.185000	1.873022
	4.190000	1.808555
	4.195000	1.840789
	4.200000	1.889139
	4.205000	1.876246
	4.210000	1.811778
	4.215000	1.834342
	4.220000	1.898809
	4.225000	1.885916
	4.230000	1.811778
	4.235000	1.840789
	4.240000	1.895586
	4.245000	1.873022
	4.250000	1.818225
	4.255000	1.837565
	4.260000	1.895586
	4.265000	1.879469
	4.270000	1.815002
	4.275000	1.834342
	4.280000	1.905256
	4.285000	1.882692
	4.290000	1.815002
	4.295000	1.840789
	4.300000	1.905256
	4.305000	1.889139
	4.310000	1.818225
	4.315000	1.844012
	4.320000	1.905256
	4.325000	1.885916
	4.330000	1.821449
	4.335000	1.844012
	4.340000	1.908479
	4.345000	1.885916
	4.350000	1.827895
	4.355000	1.844012
	4.360000	1.905256
	4.365000	1.879469
	4.370000	1.824672
	4.375000	1.847235
	4.380000	1.911703
	4.385000	1.889139
	4.390000	1.824672
	4.395000	1.853682
	4.400000	1.914926
	4.405000	1.889139
	4.410000	1.831119
	4.415000	1.847235
	4.420000	1.914926
	4.425000	1.898809
	4.430000	1.831119
	4.435000	1.856906
	4.440000	1.918149
	4.445000	1.898809
	4.450000	1.837565
	4.455000	1.860129
	4.460000	1.914926
	4.465000	1.895586
	4.470000	1.827895
	4.475000	1.860129
	4.480000	1.914926
	4.485000	1.898809
	4.490000	1.831119
	4.495000	1.856906
	4.500000	1.918149
	4.505000	1.895586
	4.510000	1.837565
	4.515000	1.853682
	4.520000	1.921373
	4.525000	1.898809
	4.530000	1.844012
	4.535000	1.860129
	4.540000	1.921373
	4.545000	1.898809
	4.550000	1.840789
	4.555000	1.863352
	4.560000	1.927819
	4.565000	1.908479
	4.570000	1.834342
	4.575000	1.863352
	4.580000	1.921373
	4.585000	1.905256
	4.590000	1.844012
	4.595000	1.856906
	4.600000	1.921373
	4.605000	1.905256
	4.610000	1.847235
	4.615000	1.869799
	4.620000	1.931043
	4.625000	1.905256
	4.630000	1.840789
	4.635000	1.863352
	4.640000	1.934266
	4.645000	1.908479
	4.650000	1.847235
	4.655000	1.873022
	4.660000	1.924596
	4.665000	1.911703
	4.670000	1.844012
	4.675000	1.869799
	4.680000	1.937489
	4.685000	1.914926
	4.690000	1.850459
	4.695000	1.873022
	4.700000	1.934266
	4.705000	1.908479
	4.710000	1.850459
	4.715000	1.876246
	4.720000	1.934266
	4.725000	1.908479
	4.730000	1.847235
	4.735000	1.869799
	4.740000	1.934266
	4.745000	1.914926
	4.750000	1.847235
	4.755000	1.869799
	4.760000	1.937489
	4.765000	1.914926
	4.770000	1.853682
	4.775000	1.873022
	4.780000	1.937489
	4.785000	1.911703
	4.790000	1.853682
	4.795000	1.873022
	4.800000	1.940713
	4.805000	1.914926
	4.810000	1.853682
	4.815000	1.882692
	4.820000	1.943936
	4.825000	1.921373
	4.830000	1.850459
	4.835000	1.876246
	4.840000	1.940713
	4.845000	1.911703
	4.850000	1.856906
	4.855000	1.882692
	4.860000	1.947160
	4.865000	1.914926
	4.870000	1.853682
	4.875000	1.889139
	4.880000	1.943936
	4.885000	1.921373
	4.890000	1.860129
	4.895000	1.885916
	4.900000	1.950383
	4.905000	1.921373
	4.910000	1.856906
	4.915000	1.885916
	4.920000	1.947160
	4.925000	1.924596
	4.930000	1.860129
	4.935000	1.889139
	4.940000	1.953606
	4.945000	1.921373
	4.950000	1.863352
	4.955000	1.889139
	4.960000	1.947160
	4.965000	1.924596
	4.970000	1.866576
	4.975000	1.895586
	4.980000	1.953606
	4.985000	1.921373
	4.990000	1.856906
	4.995000	1.885916
	5.000000	1.950383
	5.005000	1.927819
	5.010000	1.866576
	5.015000	1.889139
	5.020000	1.953606
	5.025000	1.931043
	5.030000	1.869799
	5.035000	1.898809
	5.040000	1.960053
	5.045000	1.934266
	5.050000	1.873022
	5.055000	1.898809
	5.060000	1.963276
	5.065000	1.940713
	5.070000	1.876246
	5.075000	1.902033
	5.080000	1.969723
	5.085000	1.937489
	5.090000	1.879469
	5.095000	1.911703
	5.100000	1.976170
	5.105000	1.947160
	5.110000	1.889139
	5.115000	1.921373
	5.120000	1.976170
	5.125000	1.953606
	5.130000	1.898809
	5.135000	1.937489
	5.140000	1.998733
	5.145000	1.976170
	5.150000	1.914926
	5.155000	1.950383
	5.160000	2.001957
	5.165000	1.989063
	5.170000	1.931043
	5.175000	1.969723
	5.180000	2.027744
	5.185000	2.001957
	5.190000	1.947160
	5.195000	1.982617
	5.200000	2.040637
	5.205000	2.021297
	5.210000	1.969723
	5.215000	1.992287
	5.220000	2.063200
	5.225000	2.030967
	5.230000	1.976170
	5.235000	2.011627
	5.240000	2.076094
	5.245000	2.056754
	5.250000	1.992287
	5.255000	2.024520
	5.260000	2.088987
	5.265000	2.072871
	5.270000	2.011627
	5.275000	2.050307
	5.280000	2.111551
	5.285000	2.088987
	5.290000	2.034190
	5.295000	2.066424
	5.300000	2.130891
	5.305000	2.105104
	5.310000	2.056754
	5.315000	2.085764
	5.320000	2.153455
	5.325000	2.130891
	5.330000	2.079317
	5.335000	2.101881
	5.340000	2.169571
	5.345000	2.140561
	5.350000	2.088987
	5.355000	2.121221
	5.360000	2.176018
	5.365000	2.150231
	5.370000	2.095434
	5.375000	2.130891
	5.380000	2.182465
	5.385000	2.153455
	5.390000	2.101881
	5.395000	2.134114
	5.400000	2.188911
	5.405000	2.163125
	5.410000	2.101881
	5.415000	2.140561
	5.420000	2.198582
	5.425000	2.166348
	5.430000	2.111551
	5.435000	2.147008
	5.440000	2.198582
	5.445000	2.169571
	5.450000	2.111551
	5.455000	2.150231
	5.460000	2.205028
	5.465000	2.176018
	5.470000	2.114774
	5.475000	2.153455
	5.480000	2.208252
	5.485000	2.182465
	5.490000	2.127668
	5.495000	2.153455
	5.500000	2.211475
	5.505000	2.182465
	5.510000	2.124444
	5.515000	2.153455
	5.520000	2.211475
	5.525000	2.179241
	5.530000	2.127668
	5.535000	2.153455
	5.540000	2.211475
	5.545000	2.176018
	5.550000	2.124444
	5.555000	2.153455
	5.560000	2.214698
	5.565000	2.179241
	5.570000	2.134114
	5.575000	2.159901
	5.580000	2.217922
	5.585000	2.185688
	5.590000	2.134114
	5.595000	2.163125
	5.600000	2.221145
	5.605000	2.192135
	5.610000	2.134114
	5.615000	2.179241
	5.620000	2.224368
	5.625000	2.205028
	5.630000	2.147008
	5.635000	2.179241
	5.640000	2.237262
	5.645000	2.201805
	5.650000	2.153455
	5.655000	2.182465
	5.660000	2.234039
	5.665000	2.205028
	5.670000	2.153455
	5.675000	2.188911
	5.680000	2.243709
	5.685000	2.211475
	5.690000	2.159901
	5.695000	2.192135
	5.700000	2.234039
	5.705000	2.208252
	5.710000	2.150231
	5.715000	2.176018
	5.720000	2.234039
	5.725000	2.198582
	5.730000	2.143784
	5.735000	2.176018
	5.740000	2.224368
	5.745000	2.192135
	5.750000	2.140561
	5.755000	2.172795
	5.760000	2.224368
	5.765000	2.195358
	5.770000	2.140561
	5.775000	2.169571
	5.780000	2.224368
	5.785000	2.198582
	5.790000	2.147008
	5.795000	2.182465
	5.800000	2.240485
	5.805000	2.217922
	5.810000	2.172795
	5.815000	2.217922
	5.820000	2.272719
	5.825000	2.256602
	5.830000	2.211475
	5.835000	2.263049
	5.840000	2.324293
	5.845000	2.311399
	5.850000	2.269495
	5.855000	2.324293
	5.860000	2.388760
	5.865000	2.372643
	5.870000	2.333963
	5.875000	2.385536
	5.880000	2.456450
	5.885000	2.443557
	5.890000	2.401653
	5.895000	2.450004
	5.900000	2.524141
	5.905000	2.508024
	5.910000	2.466120
	5.915000	2.517694
	5.920000	2.585385
	5.925000	2.569268
	5.930000	2.527364
	5.935000	2.572491
	5.940000	2.624065
	5.945000	2.598278
	5.950000	2.553151
	5.955000	2.582161
	5.960000	2.633735
	5.965000	2.614395
	5.970000	2.556374
	5.975000	2.585385
	5.980000	2.633735
	5.985000	2.598278
	5.990000	2.549928
	5.995000	2.572491
	6.000000	2.614395
	6.005000	2.572491
	6.010000	2.514471
	6.015000	2.530588
	6.020000	2.575715
	6.025000	2.527364
	6.030000	2.469344
	6.035000	2.485461
	6.040000	2.508024
	6.045000	2.450004
	6.050000	2.382313
	6.055000	2.398430
	6.060000	2.420993
	6.065000	2.372643
	6.070000	2.301729
	6.075000	2.324293
	6.080000	2.366196
	6.085000	2.314622
	6.090000	2.263049
	6.095000	2.292059
	6.100000	2.337186
	6.105000	2.301729
	6.110000	2.259825
	6.115000	2.288836
	6.120000	2.350079
	6.125000	2.330739
	6.130000	2.288836
	6.135000	2.340409
	6.140000	2.408100
	6.145000	2.395206
	6.150000	2.359750
	6.155000	2.414547
	6.160000	2.488684
	6.165000	2.466120
	6.170000	2.433887
	6.175000	2.488684
	6.180000	2.546704
	6.185000	2.530588
	6.190000	2.495131
	6.195000	2.543481
	6.200000	2.601501
	6.205000	2.578938
	6.210000	2.537034
	6.215000	2.585385
	6.220000	2.633735
	6.225000	2.607948
	6.230000	2.569268
	6.235000	2.607948
	6.240000	2.656299
	6.245000	2.627288
	6.250000	2.578938
	6.255000	2.611172
	6.260000	2.662745
	6.265000	2.627288
	6.270000	2.585385
	6.275000	2.614395
	6.280000	2.656299
	6.285000	2.617618
	6.290000	2.575715
	6.295000	2.604725
	6.300000	2.653075
	6.305000	2.617618
	6.310000	2.569268
	6.315000	2.591831
	6.320000	2.643405
	6.325000	2.604725
	6.330000	2.546704
	6.335000	2.591831
	6.340000	2.636958
	6.345000	2.601501
	6.350000	2.546704
	6.355000	2.578938
	6.360000	2.620842
	6.365000	2.585385
	6.370000	2.533811
	6.375000	2.578938
	6.380000	2.624065
	6.385000	2.582161
	6.390000	2.530588
	6.395000	2.566044
	6.400000	2.614395
	6.405000	2.578938
	6.410000	2.527364
	6.415000	2.559598
	6.420000	2.601501
	6.425000	2.566044
	6.430000	2.517694
	6.435000	2.540258
	6.440000	2.585385
	6.445000	2.546704
	6.450000	2.491907
	6.455000	2.524141
	6.460000	2.556374
	6.465000	2.517694
	6.470000	2.462897
	6.475000	2.485461
	6.480000	2.527364
	6.485000	2.475790
	6.490000	2.427440
	6.495000	2.456450
	6.500000	2.488684
	6.505000	2.437110
	6.510000	2.382313
	6.515000	2.411323
	6.520000	2.440333
	6.525000	2.395206
	6.530000	2.337186
	6.535000	2.362973
	6.540000	2.398430
	6.545000	2.353303
	6.550000	2.298506
	6.555000	2.321069
	6.560000	2.359750
	6.565000	2.308176
	6.570000	2.256602
	6.575000	2.282389
	6.580000	2.311399
	6.585000	2.275942
	6.590000	2.217922
	6.595000	2.243709
	6.600000	2.279166
	6.605000	2.230815
	6.610000	2.179241
	6.615000	2.208252
	6.620000	2.246932
	6.625000	2.201805
	6.630000	2.140561
	6.635000	2.169571
	6.640000	2.211475
	6.645000	2.166348
	6.650000	2.111551
	6.655000	2.137338
	6.660000	2.176018
	6.665000	2.124444
	6.670000	2.069647
	6.675000	2.095434
	6.680000	2.130891
	6.685000	2.082541
	6.690000	2.027744
	6.695000	2.063200
	6.700000	2.108328
	6.705000	2.050307
	6.710000	1.992287
	6.715000	2.027744
	6.720000	2.069647
	6.725000	2.021297
	6.730000	1.972946
	6.735000	2.005180
	6.740000	2.037414
	6.745000	1.992287
	6.750000	1.940713
	6.755000	1.979393
	6.760000	2.021297
	6.765000	1.972946
	6.770000	1.921373
	6.775000	1.953606
	6.780000	1.998733
	6.785000	1.963276
	6.790000	1.905256
	6.795000	1.943936
	6.800000	1.982617
	6.805000	1.937489
	6.810000	1.885916
	6.815000	1.934266
	6.820000	1.969723
	6.825000	1.924596
	6.830000	1.879469
	6.835000	1.908479
	6.840000	1.960053
	6.845000	1.921373
	6.850000	1.873022
	6.855000	1.911703
	6.860000	1.960053
	6.865000	1.911703
	6.870000	1.860129
	6.875000	1.902033
	6.880000	1.953606
	6.885000	1.911703
	6.890000	1.866576
	6.895000	1.905256
	6.900000	1.947160
	6.905000	1.908479
	6.910000	1.860129
	6.915000	1.905256
	6.920000	1.947160
	6.925000	1.905256
	6.930000	1.863352
	6.935000	1.902033
	6.940000	1.947160
	6.945000	1.902033
	6.950000	1.856906
	6.955000	1.895586
	6.960000	1.937489
	6.965000	1.902033
	6.970000	1.853682
	6.975000	1.892362
	6.980000	1.937489
	6.985000	1.902033
	6.990000	1.853682
	6.995000	1.892362
	7.000000	1.940713
	7.005000	1.895586
	7.010000	1.844012
	7.015000	1.892362
	7.020000	1.940713
	7.025000	1.889139
	7.030000	1.844012
	7.035000	1.889139
	7.040000	1.934266
	7.045000	1.885916
	7.050000	1.840789
	7.055000	1.882692
	7.060000	1.921373
	7.065000	1.879469
	7.070000	1.840789
	7.075000	1.879469
	7.080000	1.921373
	7.085000	1.876246
	7.090000	1.834342
	7.095000	1.873022
	7.100000	1.918149
	7.105000	1.876246
	7.110000	1.831119
	7.115000	1.879469
	7.120000	1.911703
	7.125000	1.876246
	7.130000	1.831119
	7.135000	1.866576
	7.140000	1.911703
	7.145000	1.869799
	7.150000	1.815002
	7.155000	1.863352
	7.160000	1.905256
	7.165000	1.860129
	7.170000	1.811778
	7.175000	1.856906
	7.180000	1.898809
	7.185000	1.856906
	7.190000	1.811778
	7.195000	1.853682
	7.200000	1.892362
	7.205000	1.850459
	7.210000	1.808555
	7.215000	1.850459
	7.220000	1.892362
	7.225000	1.850459
	7.230000	1.795662
	7.235000	1.837565
	7.240000	1.885916
	7.245000	1.834342
	7.250000	1.782768
	7.255000	1.837565
	7.260000	1.876246
	7.265000	1.824672
	7.270000	1.782768
	7.275000	1.827895
	7.280000	1.869799
	7.285000	1.821449
	7.290000	1.769875
	7.295000	1.824672
	7.300000	1.866576
	7.305000	1.815002
	7.310000	1.773098
	7.315000	1.815002
	7.320000	1.853682
	7.325000	1.808555
	7.330000	1.760205
	7.335000	1.808555
	7.340000	1.856906
	7.345000	1.802108
	7.350000	1.760205
	7.355000	1.808555
	7.360000	1.847235
	7.365000	1.802108
	7.370000	1.756981
	7.375000	1.805332
	7.380000	1.847235
	7.385000	1.798885
	7.390000	1.760205
	7.395000	1.805332
	7.400000	1.847235
	7.405000	1.808555
	7.410000	1.763428
	7.415000	1.802108
	7.420000	1.856906
	7.425000	1.798885
	7.430000	1.763428
	7.435000	1.808555
	7.440000	1.856906
	7.445000	1.802108
	7.450000	1.753758
	7.455000	1.802108
	7.460000	1.847235
	7.465000	1.795662
	7.470000	1.753758
	7.475000	1.805332
	7.480000	1.847235
	7.485000	1.805332
	7.490000	1.756981
	7.495000	1.802108
	7.500000	1.850459
	7.505000	1.798885
	7.510000	1.750535
	7.515000	1.798885
	7.520000	1.844012
	7.525000	1.792438
	7.530000	1.750535
	7.535000	1.792438
	7.540000	1.840789
	7.545000	1.789215
	7.550000	1.747311
	7.555000	1.795662
	7.560000	1.844012
	7.565000	1.785992
	7.570000	1.747311
	7.575000	1.792438
	7.580000	1.837565
	7.585000	1.785992
	7.590000	1.744088
	7.595000	1.785992
	7.600000	1.831119
	7.605000	1.782768
	7.610000	1.737641
	7.615000	1.789215
	7.620000	1.827895
	7.625000	1.776322
	7.630000	1.734418
	7.635000	1.782768
	7.640000	1.831119
	7.645000	1.779545
	7.650000	1.731195
	7.655000	1.785992
	7.660000	1.827895
	7.665000	1.779545
	7.670000	1.734418
	7.675000	1.782768
	7.680000	1.824672
	7.685000	1.773098
	7.690000	1.737641
	7.695000	1.789215
	7.700000	1.824672
	7.705000	1.776322
	7.710000	1.734418
	7.715000	1.785992
	7.720000	1.827895
	7.725000	1.776322
	7.730000	1.737641
	7.735000	1.789215
	7.740000	1.831119
	7.745000	1.769875
	7.750000	1.737641
	7.755000	1.782768
	7.760000	1.827895
	7.765000	1.779545
	7.770000	1.731195
	7.775000	1.779545
	7.780000	1.824672
	7.785000	1.773098
	7.790000	1.731195
	7.795000	1.779545
	7.800000	1.818225
	7.805000	1.773098
	7.810000	1.727971
	7.815000	1.782768
	7.820000	1.815002
	7.825000	1.766651
	7.830000	1.727971
	7.835000	1.779545
	7.840000	1.818225
	7.845000	1.766651
	7.850000	1.727971
	7.855000	1.776322
	7.860000	1.818225
	7.865000	1.760205
	7.870000	1.734418
	7.875000	1.776322
	7.880000	1.808555
	7.885000	1.756981
	7.890000	1.724748
	7.895000	1.776322
	7.900000	1.808555
	7.905000	1.763428
	7.910000	1.724748
	7.915000	1.782768
	7.920000	1.811778
	7.925000	1.763428
	7.930000	1.718301
	7.935000	1.773098
	7.940000	1.811778
	7.945000	1.750535
	7.950000	1.715078
	7.955000	1.773098
	7.960000	1.805332
	7.965000	1.756981
	7.970000	1.711854
	7.975000	1.769875
	7.980000	1.805332
	7.985000	1.750535
	7.990000	1.715078
	7.995000	1.763428
	8.000000	1.805332
	8.005000	1.744088
	8.010000	1.708631
	8.015000	1.766651
	8.020000	1.802108
	8.025000	1.750535
	8.030000	1.708631
	8.035000	1.763428
	8.040000	1.795662
	8.045000	1.744088
	8.050000	1.711854
	8.055000	1.763428
	8.060000	1.798885
	8.065000	1.747311
	8.070000	1.702184
	8.075000	1.760205
	8.080000	1.798885
	8.085000	1.744088
	8.090000	1.708631
	8.095000	1.763428
	8.100000	1.798885
	8.105000	1.740865
	8.110000	1.708631
	8.115000	1.763428
	8.120000	1.795662
	8.125000	1.747311
	8.130000	1.708631
	8.135000	1.756981
	8.140000	1.802108
	8.145000	1.744088
	8.150000	1.708631
	8.155000	1.766651
	8.160000	1.798885
	8.165000	1.740865
	8.170000	1.715078
	8.175000	1.763428
	8.180000	1.798885
	8.185000	1.744088
	8.190000	1.708631
	8.195000	1.766651
	8.200000	1.802108
	8.205000	1.744088
	8.210000	1.708631
	8.215000	1.766651
	8.220000	1.802108
	8.225000	1.737641
	8.230000	1.708631
	8.235000	1.763428
	8.240000	1.798885
	8.245000	1.740865
	8.250000	1.708631
	8.255000	1.766651
	8.260000	1.792438
	8.265000	1.740865
	8.270000	1.705408
	8.275000	1.769875
	8.280000	1.798885
	8.285000	1.737641
	8.290000	1.708631
	8.295000	1.760205
	8.300000	1.798885
	8.305000	1.744088
	8.310000	1.708631
	8.315000	1.763428
	8.320000	1.795662
	8.325000	1.744088
	8.330000	1.711854
	8.335000	1.763428
	8.340000	1.795662
	8.345000	1.747311
	8.350000	1.708631
	8.355000	1.763428
	8.360000	1.798885
	8.365000	1.744088
	8.370000	1.711854
	8.375000	1.769875
	8.380000	1.802108
	8.385000	1.750535
	8.390000	1.715078
	8.395000	1.773098
	8.400000	1.805332
	8.405000	1.747311
	8.410000	1.711854
	8.415000	1.773098
	8.420000	1.805332
	8.425000	1.747311
	8.430000	1.721524
	8.435000	1.773098
	8.440000	1.805332
	8.445000	1.756981
	8.450000	1.718301
	8.455000	1.782768
	8.460000	1.811778
	8.465000	1.760205
	8.470000	1.724748
	8.475000	1.782768
	8.480000	1.811778
	8.485000	1.760205
	8.490000	1.727971
	8.495000	1.785992
	8.500000	1.821449
	8.505000	1.760205
	8.510000	1.727971
	8.515000	1.782768
	8.520000	1.821449
	8.525000	1.763428
	8.530000	1.734418
	8.535000	1.789215
	8.540000	1.831119
	8.545000	1.766651
	8.550000	1.731195
	8.555000	1.792438
	8.560000	1.831119
	8.565000	1.766651
	8.570000	1.737641
	8.575000	1.792438
	8.580000	1.827895
	8.585000	1.766651
	8.590000	1.740865
	8.595000	1.805332
	8.600000	1.824672
	8.605000	1.769875
	8.610000	1.744088
	8.615000	1.798885
	8.620000	1.827895
	8.625000	1.773098
	8.630000	1.740865
	8.635000	1.798885
	8.640000	1.824672
	8.645000	1.766651
	8.650000	1.737641
	8.655000	1.802108
	8.660000	1.827895
	8.665000	1.773098
	8.670000	1.747311
	8.675000	1.802108
	8.680000	1.827895
	8.685000	1.766651
	8.690000	1.734418
	8.695000	1.802108
	8.700000	1.824672
	8.705000	1.769875
	8.710000	1.737641
	8.715000	1.798885
	8.720000	1.827895
	8.725000	1.763428
	8.730000	1.734418
	8.735000	1.795662
	8.740000	1.831119
	8.745000	1.769875
	8.750000	1.744088
	8.755000	1.798885
	8.760000	1.831119
	8.765000	1.773098
	8.770000	1.740865
	8.775000	1.798885
	8.780000	1.834342
	8.785000	1.773098
	8.790000	1.740865
	8.795000	1.802108
	8.800000	1.827895
	8.805000	1.766651
	8.810000	1.737641
	8.815000	1.798885
	8.820000	1.824672
	8.825000	1.773098
	8.830000	1.734418
	8.835000	1.798885
	8.840000	1.824672
	8.845000	1.766651
	8.850000	1.731195
	8.855000	1.802108
	8.860000	1.827895
	8.865000	1.766651
	8.870000	1.740865
	8.875000	1.795662
	8.880000	1.824672
	8.885000	1.763428
	8.890000	1.731195
	8.895000	1.795662
	8.900000	1.821449
	8.905000	1.766651
	8.910000	1.737641
	8.915000	1.795662
	8.920000	1.824672
	8.925000	1.760205
	8.930000	1.734418
	8.935000	1.798885
	8.940000	1.821449
	8.945000	1.756981
	8.950000	1.731195
	8.955000	1.785992
	8.960000	1.821449
	8.965000	1.760205
	8.970000	1.724748
	8.975000	1.795662
	8.980000	1.821449
	8.985000	1.753758
	8.990000	1.731195
	8.995000	1.785992
	9.000000	1.811778
	9.005000	1.750535
	9.010000	1.731195
	9.015000	1.785992
	9.020000	1.815002
	9.025000	1.747311
	9.030000	1.727971
	9.035000	1.789215
	9.040000	1.815002
	9.045000	1.750535
	9.050000	1.724748
	9.055000	1.785992
	9.060000	1.802108
	9.065000	1.750535
	9.070000	1.727971
	9.075000	1.789215
	9.080000	1.808555
	9.085000	1.750535
	9.090000	1.721524
	9.095000	1.785992
	9.100000	1.808555
	9.105000	1.750535
	9.110000	1.724748
	9.115000	1.785992
	9.120000	1.802108
	9.125000	1.747311
	9.130000	1.721524
	9.135000	1.782768
	9.140000	1.805332
	9.145000	1.747311
	9.150000	1.721524
	9.155000	1.779545
	9.160000	1.805332
	9.165000	1.744088
	9.170000	1.721524
	9.175000	1.779545
	9.180000	1.805332
	9.185000	1.747311
	9.190000	1.718301
	9.195000	1.782768
	9.200000	1.802108
	9.205000	1.740865
	9.210000	1.718301
	9.215000	1.782768
	9.220000	1.798885
	9.225000	1.737641
	9.230000	1.718301
	9.235000	1.776322
	9.240000	1.802108
	9.245000	1.740865
	9.250000	1.718301
	9.255000	1.776322
	9.260000	1.798885
	9.265000	1.734418
	9.270000	1.715078
	9.275000	1.776322
	9.280000	1.798885
	9.285000	1.734418
	9.290000	1.718301
	9.295000	1.776322
	9.300000	1.795662
	9.305000	1.734418
	9.310000	1.715078
	9.315000	1.782768
	9.320000	1.805332
	9.325000	1.737641
	9.330000	1.718301
	9.335000	1.779545
	9.340000	1.805332
	9.345000	1.734418
	9.350000	1.711854
	9.355000	1.785992
	9.360000	1.802108
	9.365000	1.740865
	9.370000	1.721524
	9.375000	1.782768
	9.380000	1.802108
	9.385000	1.744088
	9.390000	1.718301
	9.395000	1.792438
	9.400000	1.808555
	9.405000	1.744088
	9.410000	1.721524
	9.415000	1.779545
	9.420000	1.808555
	9.425000	1.744088
	9.430000	1.727971
	9.435000	1.782768
	9.440000	1.808555
	9.445000	1.747311
	9.450000	1.724748
	9.455000	1.782768
	9.460000	1.805332
	9.465000	1.737641
	9.470000	1.724748
	9.475000	1.785992
	9.480000	1.805332
	9.485000	1.744088
	9.490000	1.727971
	9.495000	1.789215
	9.500000	1.805332
	9.505000	1.750535
	9.510000	1.724748
	9.515000	1.792438
	9.520000	1.811778
	9.525000	1.744088
	9.530000	1.727971
	9.535000	1.792438
	9.540000	1.808555
	9.545000	1.744088
	9.550000	1.724748
	9.555000	1.785992
	9.560000	1.811778
	9.565000	1.744088
	9.570000	1.727971
	9.575000	1.795662
	9.580000	1.811778
	9.585000	1.750535
	9.590000	1.727971
	9.595000	1.789215
	9.600000	1.811778
	9.605000	1.747311
	9.610000	1.727971
	9.615000	1.798885
	9.620000	1.811778
	9.625000	1.747311
	9.630000	1.731195
	9.635000	1.798885
	9.640000	1.811778
	9.645000	1.747311
	9.650000	1.727971
	9.655000	1.795662
	9.660000	1.815002
	9.665000	1.747311
	9.670000	1.737641
	9.675000	1.795662
	9.680000	1.815002
	9.685000	1.744088
	9.690000	1.734418
	9.695000	1.802108
	9.700000	1.811778
	9.705000	1.750535
	9.710000	1.734418
	9.715000	1.798885
	9.720000	1.815002
	9.725000	1.747311
	9.730000	1.734418
	9.735000	1.802108
	9.740000	1.815002
	9.745000	1.744088
	9.750000	1.740865
	9.755000	1.798885
	9.760000	1.818225
	9.765000	1.750535
	9.770000	1.737641
	9.775000	1.805332
	9.780000	1.821449
	9.785000	1.753758
	9.790000	1.747311
	9.795000	1.808555
	9.800000	1.821449
	9.805000	1.763428
	9.810000	1.747311
	9.815000	1.811778
	9.820000	1.824672
	9.825000	1.760205
	9.830000	1.747311
	9.835000	1.811778
	9.840000	1.824672
	9.845000	1.773098
	9.850000	1.750535
	9.855000	1.818225
	9.860000	1.834342
	9.865000	1.773098
	9.870000	1.750535
	9.875000	1.824672
	9.880000	1.840789
	9.885000	1.782768
	9.890000	1.773098
	9.895000	1.837565
	9.900000	1.850459
	9.905000	1.789215
	9.910000	1.779545
	9.915000	1.837565
	9.920000	1.856906
	9.925000	1.802108
	9.930000	1.782768
	9.935000	1.856906
	9.940000	1.869799
	9.945000	1.811778
	9.950000	1.795662
	9.955000	1.866576
	9.960000	1.879469
	9.965000	1.818225
	9.970000	1.805332
	9.975000	1.873022
	9.980000	1.882692
	9.985000	1.824672
	9.990000	1.815002
	9.995000	1.885916
	10.000000	1.895586
	10.005000	1.827895
	10.010000	1.821449
	10.015000	1.889139
	10.020000	1.905256
	10.025000	1.847235
	10.030000	1.834342
	10.035000	1.902033
	10.040000	1.914926
	10.045000	1.853682
	10.050000	1.844012
	10.055000	1.914926
	10.060000	1.931043
	10.065000	1.866576
	10.070000	1.856906
	10.075000	1.921373
	10.080000	1.934266
	10.085000	1.866576
	10.090000	1.869799
	10.095000	1.927819
	10.100000	1.940713
	10.105000	1.876246
	10.110000	1.869799
	10.115000	1.943936
	10.120000	1.953606
	10.125000	1.885916
	10.130000	1.882692
	10.135000	1.950383
	10.140000	1.953606
	10.145000	1.902033
	10.150000	1.898809
	10.155000	1.960053
	10.160000	1.972946
	10.165000	1.911703
	10.170000	1.908479
	10.175000	1.972946
	10.180000	1.989063
	10.185000	1.924596
	10.190000	1.921373
	10.195000	1.979393
	10.200000	1.992287
	10.205000	1.931043
	10.210000	1.934266
	10.215000	1.995510
	10.220000	2.001957
	10.225000	1.947160
	10.230000	1.940713
	10.235000	2.005180
	10.240000	2.014850
	10.245000	1.956830
	10.250000	1.956830
	10.255000	2.014850
	10.260000	2.024520
	10.265000	1.966500
	10.270000	1.963276
	10.275000	2.030967
	10.280000	2.037414
	10.285000	1.979393
	10.290000	1.972946
	10.295000	2.037414
	10.300000	2.043860
	10.305000	1.979393
	10.310000	1.982617
	10.315000	2.047084
	10.320000	2.056754
	10.325000	1.995510
	10.330000	1.995510
	10.335000	2.047084
	10.340000	2.056754
	10.345000	1.995510
	10.350000	1.992287
	10.355000	2.056754
	10.360000	2.059977
	10.365000	2.001957
	10.370000	1.995510
	10.375000	2.050307
	10.380000	2.069647
	10.385000	2.001957
	10.390000	1.989063
	10.395000	2.059977
	10.400000	2.063200
	10.405000	2.001957
	10.410000	1.992287
	10.415000	2.059977
	10.420000	2.056754
	10.425000	1.998733
	10.430000	1.992287
	10.435000	2.053530
	10.440000	2.066424
	10.445000	2.001957
	10.450000	1.995510
	10.455000	2.063200
	10.460000	2.072871
	10.465000	2.021297
	10.470000	2.027744
	10.475000	2.098657
	10.480000	2.117998
	10.485000	2.063200
	10.490000	2.085764
	10.495000	2.150231
	10.500000	2.166348
	10.505000	2.121221
	10.510000	2.137338
	10.515000	2.208252
	10.520000	2.227592
	10.525000	2.185688
	10.530000	2.195358
	10.535000	2.266272
	10.540000	2.279166
	10.545000	2.234039
	10.550000	2.246932
	10.555000	2.317846
	10.560000	2.324293
	10.565000	2.272719
	10.570000	2.282389
	10.575000	2.330739
	10.580000	2.337186
	10.585000	2.285612
	10.590000	2.288836
	10.595000	2.337186
	10.600000	2.337186
	10.605000	2.275942
	10.610000	2.266272
	10.615000	2.327516
	10.620000	2.321069
	10.625000	2.246932
	10.630000	2.243709
	10.635000	2.304952
	10.640000	2.295282
	10.645000	2.227592
	10.650000	2.224368
	10.655000	2.269495
	10.660000	2.266272
	10.665000	2.195358
	10.670000	2.185688
	10.675000	2.234039
	10.680000	2.227592
	10.685000	2.150231
	10.690000	2.134114
	10.695000	2.185688
	10.700000	2.176018
	10.705000	2.095434
	10.710000	2.092211
	10.715000	2.147008
	10.720000	2.137338
	10.725000	2.072871
	10.730000	2.069647
	10.735000	2.114774
	10.740000	2.117998
	10.745000	2.056754
	10.750000	2.056754
	10.755000	2.117998
	10.760000	2.130891
	10.765000	2.079317
	10.770000	2.085764
	10.775000	2.159901
	10.780000	2.172795
	10.785000	2.124444
	10.790000	2.140561
	10.795000	2.208252
	10.800000	2.224368
	10.805000	2.176018
	10.810000	2.185688
	10.815000	2.256602
	10.820000	2.266272
	10.825000	2.221145
	10.830000	2.230815
	10.835000	2.298506
	10.840000	2.304952
	10.845000	2.256602
	10.850000	2.269495
	10.855000	2.324293
	10.860000	2.333963
	10.865000	2.285612
	10.870000	2.288836
	10.875000	2.340409
	10.880000	2.346856
	10.885000	2.288836
	10.890000	2.285612
	10.895000	2.340409
	10.900000	2.340409
	10.905000	2.275942
	10.910000	2.282389
	10.915000	2.337186
	10.920000	2.330739
	10.925000	2.269495
	10.930000	2.272719
	10.935000	2.327516
	10.940000	2.317846
	10.945000	2.259825
	10.950000	2.263049
	10.955000	2.321069
	10.960000	2.304952
	10.965000	2.253379
	10.970000	2.253379
	10.975000	2.308176
	10.980000	2.304952
	10.985000	2.240485
	10.990000	2.243709
	10.995000	2.298506
	11.000000	2.298506
	11.005000	2.237262
	11.010000	2.240485
	11.015000	2.295282
	11.020000	2.288836
	11.025000	2.234039
	11.030000	2.234039
	11.035000	2.285612
	11.040000	2.282389
	11.045000	2.221145
	11.050000	2.221145
	11.055000	2.279166
	11.060000	2.272719
	11.065000	2.211475
	11.070000	2.217922
	11.075000	2.266272
	11.080000	2.266272
	11.085000	2.198582
	11.090000	2.201805
	11.095000	2.256602
	11.100000	2.250155
	11.105000	2.192135
	11.110000	2.185688
	11.115000	2.246932
	11.120000	2.230815
	11.125000	2.172795
	11.130000	2.176018
	11.135000	2.227592
	11.140000	2.217922
	11.145000	2.153455
	11.150000	2.153455
	11.155000	2.205028
	11.160000	2.198582
	11.165000	2.130891
	11.170000	2.127668
	11.175000	2.188911
	11.180000	2.176018
	11.185000	2.114774
	11.190000	2.108328
	11.195000	2.163125
	11.200000	2.150231
	11.205000	2.085764
	11.210000	2.092211
	11.215000	2.130891
	11.220000	2.117998
	11.225000	2.050307
	11.230000	2.047084
	11.235000	2.092211
	11.240000	2.076094
	11.245000	2.008403
	11.250000	2.001957
	11.255000	2.053530
	11.260000	2.027744
	11.265000	1.960053
	11.270000	1.960053
	11.275000	2.005180
	11.280000	1.995510
	11.285000	1.921373
	11.290000	1.924596
	11.295000	1.976170
	11.300000	1.963276
	11.305000	1.892362
	11.310000	1.889139
	11.315000	1.950383
	11.320000	1.927819
	11.325000	1.863352
	11.330000	1.869799
	11.335000	1.918149
	11.340000	1.908479
	11.345000	1.844012
	11.350000	1.844012
	11.355000	1.898809
	11.360000	1.885916
	11.365000	1.815002
	11.370000	1.831119
	11.375000	1.879469
	11.380000	1.866576
	11.385000	1.802108
	11.390000	1.808555
	11.395000	1.866576
	11.400000	1.850459
	11.405000	1.782768
	11.410000	1.792438
	11.415000	1.847235
	11.420000	1.840789
	11.425000	1.776322
	11.430000	1.779545
	11.435000	1.837565
	11.440000	1.831119
	11.445000	1.760205
	11.450000	1.766651
	11.455000	1.827895
	11.460000	1.811778
	11.465000	1.753758
	11.470000	1.763428
	11.475000	1.815002
	11.480000	1.805332
	11.485000	1.747311
	11.490000	1.753758
	11.495000	1.805332
	11.500000	1.802108
	11.505000	1.734418
	11.510000	1.750535
	11.515000	1.802108
	11.520000	1.792438
	11.525000	1.731195
	11.530000	1.740865
	11.535000	1.795662
	11.540000	1.782768
	11.545000	1.721524
	11.550000	1.731195
	11.555000	1.785992
	11.560000	1.776322
	11.565000	1.715078
	11.570000	1.727971
	11.575000	1.782768
	11.580000	1.769875
	11.585000	1.708631
	11.590000	1.718301
	11.595000	1.779545
	11.600000	1.760205
	11.605000	1.705408
	11.610000	1.708631
	11.615000	1.766651
	11.620000	1.763428
	11.625000	1.695738
	11.630000	1.702184
	11.635000	1.763428
	11.640000	1.753758
	11.645000	1.689291
	11.650000	1.692514
	11.655000	1.756981
	11.660000	1.740865
	11.665000	1.679621
	11.670000	1.692514
	11.675000	1.747311
	11.680000	1.724748
	11.685000	1.673174
	11.690000	1.679621
	11.695000	1.737641
	11.700000	1.715078
	11.705000	1.657057
	11.710000	1.663504
	11.715000	1.718301
	11.720000	1.702184
	11.725000	1.647387
	11.730000	1.657057
	11.735000	1.708631
	11.740000	1.695738
	11.745000	1.634494
	11.750000	1.644164
	11.755000	1.695738
	11.760000	1.689291
	11.765000	1.628047
	11.770000	1.634494
	11.775000	1.692514
	11.780000	1.679621
	11.785000	1.615154
	11.790000	1.631270
	11.795000	1.692514
	11.800000	1.676397
	11.805000	1.608707
	11.810000	1.628047
	11.815000	1.679621
	11.820000	1.676397
	11.825000	1.602260
	11.830000	1.615154
	11.835000	1.686067
	11.840000	1.673174
	11.845000	1.602260
	11.850000	1.624824
	11.855000	1.682844
	11.860000	1.663504
	11.865000	1.605484
	11.870000	1.624824
	11.875000	1.679621
	11.880000	1.673174
	11.885000	1.608707
	11.890000	1.624824
	11.895000	1.682844
	11.900000	1.673174
	11.905000	1.602260
	11.910000	1.624824
	11.915000	1.679621
	11.920000	1.669951
	11.925000	1.605484
	11.930000	1.624824
	11.935000	1.682844
	11.940000	1.669951
	11.945000	1.605484
	11.950000	1.628047
	11.955000	1.682844
	11.960000	1.663504
	11.965000	1.608707
	11.970000	1.628047
	11.975000	1.686067
	11.980000	1.666727
	11.985000	1.608707
	11.990000	1.624824
	11.995000	1.686067
	12.000000	1.663504
	12.005000	1.605484
	12.010000	1.621600
	12.015000	1.679621
	12.020000	1.669951
	12.025000	1.599037
	12.030000	1.621600
	12.035000	1.682844
	12.040000	1.663504
	12.045000	1.602260
	12.050000	1.618377
	12.055000	1.679621
	12.060000	1.663504
	12.065000	1.602260
	12.070000	1.615154
	12.075000	1.666727
	12.080000	1.650611
	12.085000	1.589367
	12.090000	1.611930
	12.095000	1.669951
	12.100000	1.650611
	12.105000	1.586143
	12.110000	1.605484
	12.115000	1.660281
	12.120000	1.644164
	12.125000	1.586143
	12.130000	1.599037
	12.135000	1.650611
	12.140000	1.637717
	12.145000	1.579697
	12.150000	1.592590
	12.155000	1.644164
	12.160000	1.624824
	12.165000	1.570027
	12.170000	1.582920
	12.175000	1.640940
	12.180000	1.621600
	12.185000	1.563580
	12.190000	1.582920
	12.195000	1.640940
	12.200000	1.618377
	12.205000	1.557133
	12.210000	1.576473
	12.215000	1.637717
	12.220000	1.621600
	12.225000	1.560356
	12.230000	1.582920
	12.235000	1.631270
	12.240000	1.618377
	12.245000	1.560356
	12.250000	1.576473
	12.255000	1.637717
	12.260000	1.621600
	12.265000	1.557133
	12.270000	1.579697
	12.275000	1.634494
	12.280000	1.618377
	12.285000	1.560356
	12.290000	1.576473
	12.295000	1.634494
	12.300000	1.611930
	12.305000	1.553910
	12.310000	1.573250
	12.315000	1.624824
	12.320000	1.605484
	12.325000	1.541016
	12.330000	1.563580
	12.335000	1.618377
	12.340000	1.592590
	12.345000	1.534570
	12.350000	1.553910
	12.355000	1.611930
	12.360000	1.595813
	12.365000	1.531346
	12.370000	1.550686
	12.375000	1.599037
	12.380000	1.579697
	12.385000	1.515229
	12.390000	1.537793
	12.395000	1.595813
	12.400000	1.570027
	12.405000	1.505559
	12.410000	1.528123
	12.415000	1.586143
	12.420000	1.563580
	12.425000	1.495889
	12.430000	1.524900
	12.435000	1.579697
	12.440000	1.557133
	12.445000	1.495889
	12.450000	1.521676
	12.455000	1.573250
	12.460000	1.553910
	12.465000	1.489443
	12.470000	1.518453
	12.475000	1.573250
	12.480000	1.541016
	12.485000	1.486219
	12.490000	1.515229
	12.495000	1.570027
	12.500000	1.547463
	12.505000	1.482996
	12.510000	1.512006
	12.515000	1.576473
	12.520000	1.553910
	12.525000	1.489443
	12.530000	1.515229
	12.535000	1.579697
	12.540000	1.557133
	12.545000	1.499113
	12.550000	1.524900
	12.555000	1.579697
	12.560000	1.557133
	12.565000	1.502336
	12.570000	1.524900
	12.575000	1.579697
	12.580000	1.560356
	12.585000	1.495889
	12.590000	1.524900
	12.595000	1.582920
	12.600000	1.560356
	12.605000	1.502336
	12.610000	1.521676
	12.615000	1.582920
	12.620000	1.553910
	12.625000	1.505559
	12.630000	1.521676
	12.635000	1.586143
	12.640000	1.563580
	12.645000	1.499113
	12.650000	1.524900
	12.655000	1.582920
	12.660000	1.553910
	12.665000	1.495889
	12.670000	1.521676
	12.675000	1.576473
	12.680000	1.553910
	12.685000	1.499113
	12.690000	1.524900
	12.695000	1.576473
	12.700000	1.553910
	12.705000	1.492666
	12.710000	1.521676
	12.715000	1.570027
	12.720000	1.550686
	12.725000	1.492666
	12.730000	1.518453
	12.735000	1.570027
	12.740000	1.550686
	12.745000	1.482996
	12.750000	1.515229
	12.755000	1.570027
	12.760000	1.541016
	12.765000	1.476549
	12.770000	1.508783
	12.775000	1.570027
	12.780000	1.528123
	12.785000	1.476549
	12.790000	1.502336
	12.795000	1.560356
	12.800000	1.531346
	12.805000	1.473326
	12.810000	1.505559
	12.815000	1.550686
	12.820000	1.534570
	12.825000	1.470102
	12.830000	1.499113
	12.835000	1.557133
	12.840000	1.521676
	12.845000	1.463656
	12.850000	1.499113
	12.855000	1.550686
	12.860000	1.528123
	12.865000	1.460432
	12.870000	1.495889
	12.875000	1.553910
	12.880000	1.521676
	12.885000	1.463656
	12.890000	1.489443
	12.895000	1.547463
	12.900000	1.524900
	12.905000	1.460432
	12.910000	1.495889
	12.915000	1.547463
	12.920000	1.524900
	12.925000	1.460432
	12.930000	1.492666
	12.935000	1.547463
	12.940000	1.524900
	12.945000	1.466879
	12.950000	1.495889
	12.955000	1.550686
	12.960000	1.528123
	12.965000	1.473326
	12.970000	1.499113
	12.975000	1.550686
	12.980000	1.528123
	12.985000	1.466879
	12.990000	1.502336
	12.995000	1.557133
	13.000000	1.524900
	13.005000	1.466879
	13.010000	1.502336
	13.015000	1.557133
	13.020000	1.524900
	13.025000	1.470102
	13.030000	1.502336
	13.035000	1.553910
	13.040000	1.528123
	13.045000	1.470102
	13.050000	1.502336
	13.055000	1.557133
	13.060000	1.524900
	13.065000	1.463656
	13.070000	1.502336
	13.075000	1.553910
	13.080000	1.521676
	13.085000	1.463656
	13.090000	1.499113
	13.095000	1.550686
	13.100000	1.524900
	13.105000	1.473326
	13.110000	1.495889
	13.115000	1.550686
	13.120000	1.518453
	13.125000	1.463656
	13.130000	1.492666
	13.135000	1.550686
	13.140000	1.518453
	13.145000	1.463656
	13.150000	1.489443
	13.155000	1.547463
	13.160000	1.515229
	13.165000	1.470102
	13.170000	1.489443
	13.175000	1.550686
	13.180000	1.518453
	13.185000	1.463656
	13.190000	1.499113
	13.195000	1.550686
	13.200000	1.521676
	13.205000	1.460432
	13.210000	1.492666
	13.215000	1.550686
	13.220000	1.521676
	13.225000	1.463656
	13.230000	1.495889
	13.235000	1.547463
	13.240000	1.515229
	13.245000	1.453986
	13.250000	1.495889
	13.255000	1.541016
	13.260000	1.512006
	13.265000	1.457209
	13.270000	1.492666
	13.275000	1.541016
	13.280000	1.508783
	13.285000	1.457209
	13.290000	1.489443
	13.295000	1.544240
	13.300000	1.508783
	13.305000	1.450762
	13.310000	1.486219
	13.315000	1.537793
	13.320000	1.515229
	13.325000	1.450762
	13.330000	1.482996
	13.335000	1.544240
	13.340000	1.512006
	13.345000	1.450762
	13.350000	1.482996
	13.355000	1.537793
	13.360000	1.512006
	13.365000	1.450762
	13.370000	1.482996
	13.375000	1.544240
	13.380000	1.505559
	13.385000	1.453986
	13.390000	1.479773
	13.395000	1.534570
	13.400000	1.505559
	13.405000	1.447539
	13.410000	1.476549
	13.415000	1.537793
	13.420000	1.502336
	13.425000	1.450762
	13.430000	1.479773
	13.435000	1.537793
	13.440000	1.502336
	13.445000	1.447539
	13.450000	1.482996
	13.455000	1.528123
	13.460000	1.505559
	13.465000	1.447539
	13.470000	1.479773
	13.475000	1.537793
	13.480000	1.502336
	13.485000	1.447539
	13.490000	1.479773
	13.495000	1.537793
	13.500000	1.499113
	13.505000	1.444316
	13.510000	1.479773
	13.515000	1.534570
	13.520000	1.499113
	13.525000	1.441092
	13.530000	1.476549
	13.535000	1.531346
	13.540000	1.495889
	13.545000	1.441092
	13.550000	1.479773
	13.555000	1.537793
	13.560000	1.495889
	13.565000	1.444316
	13.570000	1.470102
	13.575000	1.528123
	13.580000	1.502336
	13.585000	1.441092
	13.590000	1.479773
	13.595000	1.541016
	13.600000	1.492666
	13.605000	1.447539
	13.610000	1.489443
	13.615000	1.541016
	13.620000	1.495889
	13.625000	1.441092
	13.630000	1.482996
	13.635000	1.534570
	13.640000	1.499113
	13.645000	1.441092
	13.650000	1.479773
	13.655000	1.541016
	13.660000	1.502336
	13.665000	1.447539
	13.670000	1.486219
	13.675000	1.541016
	13.680000	1.502336
	13.685000	1.450762
	13.690000	1.482996
	13.695000	1.537793
	13.700000	1.502336
	13.705000	1.450762
	13.710000	1.492666
	13.715000	1.537793
	13.720000	1.502336
	13.725000	1.450762
	13.730000	1.489443
	13.735000	1.544240
	13.740000	1.505559
	13.745000	1.444316
	13.750000	1.492666
	13.755000	1.544240
	13.760000	1.502336
	13.765000	1.450762
	13.770000	1.489443
	13.775000	1.544240
	13.780000	1.502336
	13.785000	1.447539
	13.790000	1.492666
	13.795000	1.537793
	13.800000	1.502336
	13.805000	1.447539
	13.810000	1.492666
	13.815000	1.541016
	13.820000	1.505559
	13.825000	1.447539
	13.830000	1.486219
	13.835000	1.544240
	13.840000	1.499113
	13.845000	1.453986
	13.850000	1.492666
	13.855000	1.541016
	13.860000	1.502336
	13.865000	1.450762
	13.870000	1.492666
	13.875000	1.541016
	13.880000	1.505559
	13.885000	1.450762
	13.890000	1.489443
	13.895000	1.541016
	13.900000	1.499113
	13.905000	1.450762
	13.910000	1.492666
	13.915000	1.537793
	13.920000	1.505559
	13.925000	1.450762
	13.930000	1.495889
	13.935000	1.547463
	13.940000	1.502336
	13.945000	1.444316
	13.950000	1.489443
	13.955000	1.541016
	13.960000	1.499113
	13.965000	1.447539
	13.970000	1.486219
	13.975000	1.534570
	13.980000	1.499113
	13.985000	1.450762
	13.990000	1.489443
	13.995000	1.541016
	14.000000	1.502336
	14.005000	1.450762
	14.010000	1.495889
	14.015000	1.544240
	14.020000	1.502336
	14.025000	1.453986
	14.030000	1.495889
	14.035000	1.544240
	14.040000	1.502336
	14.045000	1.447539
	14.050000	1.492666
	14.055000	1.544240
	14.060000	1.502336
	14.065000	1.450762
	14.070000	1.492666
	14.075000	1.537793
	14.080000	1.502336
	14.085000	1.447539
	14.090000	1.495889
	14.095000	1.544240
	14.100000	1.499113
	14.105000	1.450762
	14.110000	1.489443
	14.115000	1.541016
	14.120000	1.489443
	14.125000	1.444316
	14.130000	1.486219
	14.135000	1.534570
	14.140000	1.489443
	14.145000	1.441092
	14.150000	1.479773
	14.155000	1.534570
	14.160000	1.482996
	14.165000	1.441092
	14.170000	1.486219
	14.175000	1.524900
	14.180000	1.482996
	14.185000	1.434645
	14.190000	1.473326
	14.195000	1.528123
	14.200000	1.476549
	14.205000	1.434645
	14.210000	1.470102
	14.215000	1.515229
	14.220000	1.473326
	14.225000	1.418529
	14.230000	1.470102
	14.235000	1.515229
	14.240000	1.470102
	14.245000	1.418529
	14.250000	1.466879
	14.255000	1.515229
	14.260000	1.460432
	14.265000	1.415305
	14.270000	1.466879
	14.275000	1.502336
	14.280000	1.460432
	14.285000	1.415305
	14.290000	1.466879
	14.295000	1.505559
	14.300000	1.457209
	14.305000	1.412082
	14.310000	1.457209
	14.315000	1.505559
	14.320000	1.457209
	14.325000	1.405635
	14.330000	1.457209
	14.335000	1.499113
	14.340000	1.453986
	14.345000	1.405635
	14.350000	1.453986
	14.355000	1.502336
	14.360000	1.450762
	14.365000	1.405635
	14.370000	1.453986
	14.375000	1.499113
	14.380000	1.450762
	14.385000	1.412082
	14.390000	1.457209
	14.395000	1.499113
	14.400000	1.447539
	14.405000	1.405635
	14.410000	1.453986
	14.415000	1.499113
	14.420000	1.450762
	14.425000	1.399189
	14.430000	1.447539
	14.435000	1.495889
	14.440000	1.447539
	14.445000	1.402412
	14.450000	1.450762
	14.455000	1.502336
	14.460000	1.450762
	14.465000	1.402412
	14.470000	1.444316
	14.475000	1.495889
	14.480000	1.444316
	14.485000	1.399189
	14.490000	1.444316
	14.495000	1.492666
	14.500000	1.450762
	14.505000	1.399189
	14.510000	1.444316
	14.515000	1.486219
	14.520000	1.447539
	14.525000	1.395965
	14.530000	1.444316
	14.535000	1.495889
	14.540000	1.447539
	14.545000	1.399189
	14.550000	1.450762
	14.555000	1.489443
	14.560000	1.444316
	14.565000	1.395965
	14.570000	1.444316
	14.575000	1.492666
	14.580000	1.441092
	14.585000	1.399189
	14.590000	1.444316
	14.595000	1.492666
	14.600000	1.447539
	14.605000	1.399189
	14.610000	1.447539
	14.615000	1.489443
	14.620000	1.444316
	14.625000	1.399189
	14.630000	1.447539
	14.635000	1.489443
	14.640000	1.444316
	14.645000	1.399189
	14.650000	1.447539
	14.655000	1.495889
	14.660000	1.441092
	14.665000	1.399189
	14.670000	1.447539
	14.675000	1.489443
	14.680000	1.437869
	14.685000	1.395965
	14.690000	1.444316
	14.695000	1.489443
	14.700000	1.434645
	14.705000	1.402412
	14.710000	1.447539
	14.715000	1.486219
	14.720000	1.441092
	14.725000	1.392742
	14.730000	1.447539
	14.735000	1.489443
	14.740000	1.437869
	14.745000	1.392742
	14.750000	1.453986
	14.755000	1.492666
	14.760000	1.450762
	14.765000	1.408859
	14.770000	1.460432
	14.775000	1.505559
	14.780000	1.453986
	14.785000	1.418529
	14.790000	1.470102
	14.795000	1.518453
	14.800000	1.463656
	14.805000	1.428199
	14.810000	1.482996
	14.815000	1.528123
	14.820000	1.482996
	14.825000	1.447539
	14.830000	1.502336
	14.835000	1.553910
	14.840000	1.495889
	14.845000	1.463656
	14.850000	1.528123
	14.855000	1.570027
	14.860000	1.528123
	14.865000	1.495889
	14.870000	1.547463
	14.875000	1.595813
	14.880000	1.553910
	14.885000	1.524900
	14.890000	1.576473
	14.895000	1.628047
	14.900000	1.576473
	14.905000	1.547463
	14.910000	1.608707
	14.915000	1.653834
	14.920000	1.608707
	14.925000	1.563580
	14.930000	1.624824
	14.935000	1.673174
	14.940000	1.628047
	14.945000	1.592590
	14.950000	1.650611
	14.955000	1.698961
	14.960000	1.653834
	14.965000	1.611930
	14.970000	1.673174
	14.975000	1.708631
	14.980000	1.669951
	14.985000	1.634494
	14.990000	1.689291
	14.995000	1.731195
	15.000000	1.692514
	15.005000	1.660281
	15.010000	1.711854
	15.015000	1.769875
	15.020000	1.721524
	15.025000	1.702184
	15.030000	1.769875
	15.035000	1.815002
	15.040000	1.779545
	15.045000	1.766651
	15.050000	1.831119
	15.055000	1.885916
	15.060000	1.847235
	15.065000	1.831119
	15.070000	1.898809
	15.075000	1.947160
	15.080000	1.908479
	15.085000	1.885916
	15.090000	1.950383
	15.095000	1.992287
	15.100000	1.953606
	15.105000	1.921373
	15.110000	1.985840
	15.115000	2.018073
	15.120000	1.976170
	15.125000	1.947160
	15.130000	1.998733
	15.135000	2.037414
	15.140000	1.995510
	15.145000	1.963276
	15.150000	2.011627
	15.155000	2.047084
	15.160000	2.008403
	15.165000	1.976170
	15.170000	2.014850
	15.175000	2.050307
	15.180000	1.995510
	15.185000	1.966500
	15.190000	2.005180
	15.195000	2.043860
	15.200000	1.989063
	15.205000	1.953606
	15.210000	1.992287
	15.215000	2.030967
	15.220000	1.969723
	15.225000	1.934266
	15.230000	1.979393
	15.235000	2.005180
	15.240000	1.956830
	15.245000	1.921373
	15.250000	1.960053
	15.255000	1.985840
	15.260000	1.927819
	15.265000	1.895586
	15.270000	1.940713
	15.275000	1.963276
	15.280000	1.921373
	15.285000	1.882692
	15.290000	1.927819
	15.295000	1.956830
	15.300000	1.902033
	15.305000	1.863352
	15.310000	1.908479
	15.315000	1.934266
	15.320000	1.882692
	15.325000	1.850459
	15.330000	1.898809
	15.335000	1.924596
	15.340000	1.863352
	15.345000	1.834342
	15.350000	1.876246
	15.355000	1.908479
	15.360000	1.856906
	15.365000	1.824672
	15.370000	1.866576
	15.375000	1.895586
	15.380000	1.850459
	15.385000	1.815002
	15.390000	1.860129
	15.395000	1.892362
	15.400000	1.844012
	15.405000	1.808555
	15.410000	1.863352
	15.415000	1.882692
	15.420000	1.837565
	15.425000	1.802108
	15.430000	1.860129
	15.435000	1.882692
	15.440000	1.847235
	15.445000	1.805332
	15.450000	1.853682
	15.455000	1.885916
	15.460000	1.837565
	15.465000	1.802108
	15.470000	1.850459
	15.475000	1.882692
	15.480000	1.827895
	15.485000	1.805332
	15.490000	1.840789
	15.495000	1.882692
	15.500000	1.821449
	15.505000	1.785992
	15.510000	1.831119
	15.515000	1.860129
	15.520000	1.818225
	15.525000	1.779545
	15.530000	1.818225
	15.535000	1.847235
	15.540000	1.789215
	15.545000	1.756981
	15.550000	1.808555
	15.555000	1.827895
	15.560000	1.766651
	15.565000	1.737641
	15.570000	1.782768
	15.575000	1.808555
	15.580000	1.747311
	15.585000	1.718301
	15.590000	1.776322
	15.595000	1.805332
	15.600000	1.747311
	15.605000	1.721524
	15.610000	1.769875
	15.615000	1.798885
	15.620000	1.750535
	15.625000	1.715078
	15.630000	1.773098
	15.635000	1.811778
	15.640000	1.763428
	15.645000	1.731195
	15.650000	1.785992
	15.655000	1.818225
	15.660000	1.769875
	15.665000	1.747311
	15.670000	1.811778
	15.675000	1.844012
	15.680000	1.798885
	15.685000	1.776322
	15.690000	1.831119
	15.695000	1.863352
	15.700000	1.815002
	15.705000	1.789215
	15.710000	1.847235
	15.715000	1.873022
	15.720000	1.827895
	15.725000	1.802108
	15.730000	1.850459
	15.735000	1.879469
	15.740000	1.818225
	15.745000	1.798885
	15.750000	1.847235
	15.755000	1.876246
	15.760000	1.815002
	15.765000	1.782768
	15.770000	1.831119
	15.775000	1.853682
	15.780000	1.802108
	15.785000	1.766651
	15.790000	1.818225
	15.795000	1.834342
	15.800000	1.766651
	15.805000	1.731195
	15.810000	1.776322
	15.815000	1.792438
	15.820000	1.727971
	15.825000	1.689291
	15.830000	1.731195
	15.835000	1.737641
	15.840000	1.673174
	15.845000	1.628047
	15.850000	1.663504
	15.855000	1.666727
	15.860000	1.595813
	15.865000	1.553910
	15.870000	1.592590
	15.875000	1.595813
	15.880000	1.531346
	15.885000	1.489443
	15.890000	1.541016
	15.895000	1.560356
	15.900000	1.505559
	15.905000	1.473326
	15.910000	1.524900
	15.915000	1.547463
	15.920000	1.495889
	15.925000	1.470102
	15.930000	1.524900
	15.935000	1.557133
	15.940000	1.505559
	15.945000	1.482996
	15.950000	1.541016
	15.955000	1.582920
	15.960000	1.528123
	15.965000	1.505559
	15.970000	1.570027
	15.975000	1.602260
	15.980000	1.563580
	15.985000	1.541016
	15.990000	1.618377
	15.995000	1.663504
	16.000000	1.618377
	16.005000	1.618377
	16.010000	1.692514
	16.015000	1.734418
	16.020000	1.702184
	16.025000	1.695738
	16.030000	1.766651
	16.035000	1.808555
	16.040000	1.769875
	16.045000	1.760205
	16.050000	1.821449
	16.055000	1.860129
	16.060000	1.824672
	16.065000	1.805332
	16.070000	1.863352
	16.075000	1.892362
	16.080000	1.837565
	16.085000	1.818225
	16.090000	1.879469
	16.095000	1.898809
	16.100000	1.850459
	16.105000	1.818225
	16.110000	1.876246
	16.115000	1.895586
	16.120000	1.840789
	16.125000	1.818225
	16.130000	1.869799
	16.135000	1.898809
	16.140000	1.837565
	16.145000	1.818225
	16.150000	1.863352
	16.155000	1.892362
	16.160000	1.837565
	16.165000	1.808555
	16.170000	1.853682
	16.175000	1.885916
	16.180000	1.821449
	16.185000	1.805332
	16.190000	1.860129
	16.195000	1.882692
	16.200000	1.821449
	16.205000	1.795662
	16.210000	1.856906
	16.215000	1.876246
	16.220000	1.821449
	16.225000	1.805332
	16.230000	1.853682
	16.235000	1.879469
	16.240000	1.815002
	16.245000	1.795662
	16.250000	1.856906
	16.255000	1.873022
	16.260000	1.818225
	16.265000	1.795662
	16.270000	1.847235
	16.275000	1.873022
	16.280000	1.827895
	16.285000	1.802108
	16.290000	1.853682
	16.295000	1.876246
	16.300000	1.815002
	16.305000	1.805332
	16.310000	1.856906
	16.315000	1.876246
	16.320000	1.821449
	16.325000	1.798885
	16.330000	1.860129
	16.335000	1.869799
	16.340000	1.827895
	16.345000	1.795662
	16.350000	1.853682
	16.355000	1.866576
	16.360000	1.821449
	16.365000	1.792438
	16.370000	1.850459
	16.375000	1.869799
	16.380000	1.808555
	16.385000	1.785992
	16.390000	1.837565
	16.395000	1.860129
	16.400000	1.795662
	16.405000	1.779545
	16.410000	1.831119
	16.415000	1.844012
	16.420000	1.785992
	16.425000	1.763428
	16.430000	1.821449
	16.435000	1.831119
	16.440000	1.769875
	16.445000	1.747311
	16.450000	1.802108
	16.455000	1.815002
	16.460000	1.750535
	16.465000	1.734418
	16.470000	1.789215
	16.475000	1.792438
	16.480000	1.734418
	16.485000	1.708631
	16.490000	1.766651
	16.495000	1.773098
	16.500000	1.715078
	16.505000	1.692514
	16.510000	1.740865
	16.515000	1.760205
	16.520000	1.702184
	16.525000	1.673174
	16.530000	1.724748
	16.535000	1.744088
	16.540000	1.686067
	16.545000	1.660281
	16.550000	1.708631
	16.555000	1.724748
	16.560000	1.663504
	16.565000	1.647387
	16.570000	1.702184
	16.575000	1.711854
	16.580000	1.647387
	16.585000	1.628047
	16.590000	1.669951
	16.595000	1.689291
	16.600000	1.621600
	16.605000	1.602260
	16.610000	1.650611
	16.615000	1.660281
	16.620000	1.605484
	16.625000	1.576473
	16.630000	1.624824
	16.635000	1.637717
	16.640000	1.576473
	16.645000	1.550686
	16.650000	1.608707
	16.655000	1.624824
	16.660000	1.553910
	16.665000	1.537793
	16.670000	1.592590
	16.675000	1.608707
	16.680000	1.547463
	16.685000	1.521676
	16.690000	1.582920
	16.695000	1.592590
	16.700000	1.528123
	16.705000	1.505559
	16.710000	1.566803
	16.715000	1.582920
	16.720000	1.518453
	16.725000	1.502336
	16.730000	1.560356
	16.735000	1.563580
	16.740000	1.508783
	16.745000	1.489443
	16.750000	1.553910
	16.755000	1.563580
	16.760000	1.505559
	16.765000	1.486219
	16.770000	1.534570
	16.775000	1.550686
	16.780000	1.492666
	16.785000	1.473326
	16.790000	1.528123
	16.795000	1.541016
	16.800000	1.479773
	16.805000	1.460432
	16.810000	1.518453
	16.815000	1.528123
	16.820000	1.476549
	16.825000	1.457209
	16.830000	1.515229
	16.835000	1.524900
	16.840000	1.466879
	16.845000	1.450762
	16.850000	1.508783
	16.855000	1.521676
	16.860000	1.457209
	16.865000	1.444316
	16.870000	1.499113
	16.875000	1.518453
	16.880000	1.447539
	16.885000	1.441092
	16.890000	1.499113
	16.895000	1.502336
	16.900000	1.453986
	16.905000	1.434645
	16.910000	1.495889
	16.915000	1.505559
	16.920000	1.441092
	16.925000	1.431422
	16.930000	1.489443
	16.935000	1.502336
	16.940000	1.431422
	16.945000	1.424975
	16.950000	1.476549
	16.955000	1.489443
	16.960000	1.434645
	16.965000	1.418529
	16.970000	1.476549
	16.975000	1.492666
	16.980000	1.428199
	16.985000	1.418529
	16.990000	1.473326
	16.995000	1.489443
	17.000000	1.424975
	17.005000	1.412082
	17.010000	1.473326
	17.015000	1.482996
	17.020000	1.421752
	17.025000	1.415305
	17.030000	1.473326
	17.035000	1.486219
	17.040000	1.421752
	17.045000	1.412082
	17.050000	1.463656
	17.055000	1.479773
	17.060000	1.418529
	17.065000	1.405635
	17.070000	1.463656
	17.075000	1.473326
	17.080000	1.412082
	17.085000	1.399189
	17.090000	1.463656
	17.095000	1.476549
	17.100000	1.412082
	17.105000	1.395965
	17.110000	1.457209
	17.115000	1.463656
	17.120000	1.392742
	17.125000	1.395965
	17.130000	1.450762
	17.135000	1.453986
	17.140000	1.402412
	17.145000	1.389518
	17.150000	1.444316
	17.155000	1.453986
	17.160000	1.395965
	17.165000	1.386295
	17.170000	1.447539
	17.175000	1.450762
	17.180000	1.392742
	17.185000	1.379848
	17.190000	1.437869
	17.195000	1.450762
	17.200000	1.383072
	17.205000	1.373402
	17.210000	1.437869
	17.215000	1.437869
	17.220000	1.376625
	17.225000	1.366955
	17.230000	1.428199
	17.235000	1.441092
	17.240000	1.370178
	17.245000	1.360508
	17.250000	1.424975
	17.255000	1.434645
	17.260000	1.363732
	17.265000	1.357285
	17.270000	1.418529
	17.275000	1.431422
	17.280000	1.354062
	17.285000	1.350838
	17.290000	1.408859
	17.295000	1.415305
	17.300000	1.350838
	17.305000	1.344391
	17.310000	1.402412
	17.315000	1.402412
	17.320000	1.344391
	17.325000	1.334721
	17.330000	1.389518
	17.335000	1.399189
	17.340000	1.334721
	17.345000	1.328275
	17.350000	1.386295
	17.355000	1.389518
	17.360000	1.325051
	17.365000	1.321828
	17.370000	1.376625
	17.375000	1.376625
	17.380000	1.308934
	17.385000	1.305711
	17.390000	1.366955
	17.395000	1.366955
	17.400000	1.302488
	17.405000	1.296041
	17.410000	1.360508
	17.415000	1.357285
	17.420000	1.289594
	17.425000	1.289594
	17.430000	1.344391
	17.435000	1.350838
	17.440000	1.286371
	17.445000	1.279924
	17.450000	1.337945
	17.455000	1.347615
	17.460000	1.279924
	17.465000	1.270254
	17.470000	1.331498
	17.475000	1.337945
	17.480000	1.273478
	17.485000	1.267031
	17.490000	1.328275
	17.495000	1.334721
	17.500000	1.270254
	17.505000	1.263807
	17.510000	1.328275
	17.515000	1.328275
	17.520000	1.263807
	17.525000	1.260584
	17.530000	1.315381
	17.535000	1.318605
	17.540000	1.260584
	17.545000	1.257361
	17.550000	1.315381
	17.555000	1.325051
	17.560000	1.260584
	17.565000	1.254137
	17.570000	1.315381
	17.575000	1.325051
	17.580000	1.260584
	17.585000	1.257361
	17.590000	1.321828
	17.595000	1.325051
	17.600000	1.270254
	17.605000	1.267031
	17.610000	1.331498
	17.615000	1.341168
	17.620000	1.279924
	17.625000	1.283148
	17.630000	1.347615
	17.635000	1.357285
	17.640000	1.302488
	17.645000	1.305711
	17.650000	1.376625
	17.655000	1.383072
	17.660000	1.331498
	17.665000	1.331498
	17.670000	1.399189
	17.675000	1.412082
	17.680000	1.347615
	17.685000	1.347615
	17.690000	1.415305
	17.695000	1.421752
	17.700000	1.363732
	17.705000	1.363732
	17.710000	1.418529
	17.715000	1.434645
	17.720000	1.366955
	17.725000	1.373402
	17.730000	1.428199
	17.735000	1.437869
	17.740000	1.370178
	17.745000	1.373402
	17.750000	1.434645
	17.755000	1.437869
	17.760000	1.373402
	17.765000	1.373402
	17.770000	1.428199
	17.775000	1.437869
	17.780000	1.373402
	17.785000	1.363732
	17.790000	1.431422
	17.795000	1.428199
	17.800000	1.373402
	17.805000	1.360508
	17.810000	1.428199
	17.815000	1.431422
	17.820000	1.363732
	17.825000	1.366955
	17.830000	1.418529
	17.835000	1.428199
	17.840000	1.354062
	17.845000	1.360508
	17.850000	1.415305
	17.855000	1.412082
	17.860000	1.347615
	17.865000	1.354062
	17.870000	1.408859
	17.875000	1.412082
	17.880000	1.347615
	17.885000	1.350838
	17.890000	1.405635
	17.895000	1.408859
	17.900000	1.341168
	17.905000	1.344391
	17.910000	1.395965
	17.915000	1.399189
	17.920000	1.341168
	17.925000	1.341168
	17.930000	1.399189
	17.935000	1.399189
	17.940000	1.331498
	17.945000	1.341168
	17.950000	1.399189
	17.955000	1.399189
	17.960000	1.334721
	17.965000	1.334721
	17.970000	1.389518
	17.975000	1.389518
	17.980000	1.331498
	17.985000	1.328275
	17.990000	1.386295
	17.995000	1.383072
	18.000000	1.315381
	18.005000	1.318605
	18.010000	1.383072
	18.015000	1.379848
	18.020000	1.321828
	18.025000	1.315381
	18.030000	1.370178
	18.035000	1.360508
	18.040000	1.296041
	18.045000	1.299264
	18.050000	1.360508
	18.055000	1.354062
	18.060000	1.289594
	18.065000	1.289594
	18.070000	1.347615
	18.075000	1.347615
	18.080000	1.279924
	18.085000	1.276701
	18.090000	1.337945
	18.095000	1.331498
	18.100000	1.273478
	18.105000	1.276701
	18.110000	1.334721
	18.115000	1.328275
	18.120000	1.260584
	18.125000	1.260584
	18.130000	1.328275
	18.135000	1.321828
	18.140000	1.263807
	18.145000	1.257361
	18.150000	1.321828
	18.155000	1.315381
	18.160000	1.257361
	18.165000	1.260584
	18.170000	1.312158
	18.175000	1.312158
	18.180000	1.250914
	18.185000	1.250914
	18.190000	1.312158
	18.195000	1.302488
	18.200000	1.244467
	18.205000	1.257361
	18.210000	1.305711
	18.215000	1.308934
	18.220000	1.244467
	18.225000	1.241244
	18.230000	1.305711
	18.235000	1.296041
	18.240000	1.238021
	18.245000	1.238021
	18.250000	1.299264
	18.255000	1.299264
	18.260000	1.234797
	18.265000	1.234797
	18.270000	1.289594
	18.275000	1.296041
	18.280000	1.225127
	18.285000	1.231574
	18.290000	1.289594
	18.295000	1.279924
	18.300000	1.215457
	18.305000	1.221904
	18.310000	1.286371
	18.315000	1.273478
	18.320000	1.218680
	18.325000	1.225127
	18.330000	1.276701
	18.335000	1.276701
	18.340000	1.205787
	18.345000	1.215457
	18.350000	1.276701
	18.355000	1.273478
	18.360000	1.202564
	18.365000	1.209010
	18.370000	1.270254
	18.375000	1.263807
	18.380000	1.202564
	18.385000	1.205787
	18.390000	1.270254
	18.395000	1.263807
	18.400000	1.196117
	18.405000	1.212234
	18.410000	1.270254
	18.415000	1.260584
	18.420000	1.196117
	18.425000	1.199340
	18.430000	1.267031
	18.435000	1.247691
	18.440000	1.189670
	18.445000	1.199340
	18.450000	1.260584
	18.455000	1.254137
	18.460000	1.186447
	18.465000	1.196117
	18.470000	1.257361
	18.475000	1.247691
	18.480000	1.180000
	18.485000	1.192894
	18.490000	1.250914
	18.495000	1.247691
	18.500000	1.183223
	18.505000	1.192894
	18.510000	1.247691
	18.515000	1.241244
	18.520000	1.180000
	18.525000	1.186447
	18.530000	1.244467
	18.535000	1.238021
	18.540000	1.176777
	18.545000	1.180000
	18.550000	1.254137
	18.555000	1.241244
	18.560000	1.176777
	18.565000	1.186447
	18.570000	1.254137
	18.575000	1.241244
	18.580000	1.173553
	18.585000	1.186447
	18.590000	1.247691
	18.595000	1.234797
	18.600000	1.173553
	18.605000	1.180000
	18.610000	1.250914
	18.615000	1.234797
	18.620000	1.170330
	18.625000	1.180000
	18.630000	1.241244
	18.635000	1.234797
	18.640000	1.167107
	18.645000	1.183223
	18.650000	1.247691
	18.655000	1.234797
	18.660000	1.176777
	18.665000	1.180000
	18.670000	1.244467
	18.675000	1.238021
	18.680000	1.173553
	18.685000	1.183223
	18.690000	1.247691
	18.695000	1.238021
	18.700000	1.170330
	18.705000	1.180000
	18.710000	1.250914
	18.715000	1.234797
	18.720000	1.170330
	18.725000	1.186447
	18.730000	1.247691
	18.735000	1.238021
	18.740000	1.170330
	18.745000	1.186447
	18.750000	1.247691
	18.755000	1.241244
	18.760000	1.173553
	18.765000	1.183223
	18.770000	1.247691
	18.775000	1.231574
	18.780000	1.173553
	18.785000	1.189670
	18.790000	1.247691
	18.795000	1.241244
	18.800000	1.180000
	18.805000	1.189670
	18.810000	1.254137
	18.815000	1.244467
	18.820000	1.173553
	18.825000	1.186447
	18.830000	1.254137
	18.835000	1.238021
	18.840000	1.176777
	18.845000	1.192894
	18.850000	1.254137
	18.855000	1.238021
	18.860000	1.180000
	18.865000	1.196117
	18.870000	1.254137
	18.875000	1.244467
	18.880000	1.180000
	18.885000	1.192894
	18.890000	1.247691
	18.895000	1.244467
	18.900000	1.173553
	18.905000	1.192894
	18.910000	1.250914
	18.915000	1.238021
	18.920000	1.173553
	18.925000	1.189670
	18.930000	1.250914
	18.935000	1.231574
	18.940000	1.173553
	18.945000	1.186447
	18.950000	1.254137
	18.955000	1.241244
	18.960000	1.173553
	18.965000	1.196117
	18.970000	1.247691
	18.975000	1.238021
	18.980000	1.173553
	18.985000	1.189670
	18.990000	1.250914
	18.995000	1.231574
	19.000000	1.176777
	19.005000	1.189670
	19.010000	1.244467
	19.015000	1.231574
	19.020000	1.170330
	19.025000	1.180000
	19.030000	1.247691
	19.035000	1.225127
	19.040000	1.173553
	19.045000	1.186447
	19.050000	1.244467
	19.055000	1.231574
	19.060000	1.163883
	19.065000	1.180000
	19.070000	1.244467
	19.075000	1.221904
	19.080000	1.173553
	19.085000	1.180000
	19.090000	1.244467
	19.095000	1.225127
	19.100000	1.163883
	19.105000	1.180000
	19.110000	1.238021
	19.115000	1.218680
	19.120000	1.167107
	19.125000	1.183223
	19.130000	1.238021
	19.135000	1.228351
	19.140000	1.160660
	19.145000	1.180000
	19.150000	1.238021
	19.155000	1.218680
	19.160000	1.157437
	19.165000	1.180000
	19.170000	1.234797
	19.175000	1.215457
	19.180000	1.150990
	19.185000	1.173553
	19.190000	1.238021
	19.195000	1.215457
	19.200000	1.150990
	19.205000	1.176777
	19.210000	1.228351
	19.215000	1.212234
	19.220000	1.147767
	19.225000	1.167107
	19.230000	1.234797
	19.235000	1.209010
	19.240000	1.147767
	19.245000	1.170330
	19.250000	1.221904
	19.255000	1.205787
	19.260000	1.141320
	19.265000	1.160660
	19.270000	1.225127
	19.275000	1.205787
	19.280000	1.138096
	19.285000	1.160660
	19.290000	1.221904
	19.295000	1.212234
	19.300000	1.138096
	19.305000	1.167107
	19.310000	1.228351
	19.315000	1.196117
	19.320000	1.138096
	19.325000	1.163883
	19.330000	1.225127
	19.335000	1.202564
	19.340000	1.141320
	19.345000	1.157437
	19.350000	1.221904
	19.355000	1.196117
	19.360000	1.141320
	19.365000	1.160660
	19.370000	1.218680
	19.375000	1.196117
	19.380000	1.138096
	19.385000	1.157437
	19.390000	1.221904
	19.395000	1.199340
	19.400000	1.138096
	19.405000	1.154213
	19.410000	1.215457
	19.415000	1.192894
	19.420000	1.131650
	19.425000	1.157437
	19.430000	1.218680
	19.435000	1.192894
	19.440000	1.134873
	19.445000	1.154213
	19.450000	1.212234
	19.455000	1.199340
	19.460000	1.131650
	19.465000	1.160660
	19.470000	1.215457
	19.475000	1.196117
	19.480000	1.134873
	19.485000	1.150990
	19.490000	1.218680
	19.495000	1.192894
	19.500000	1.128426
	19.505000	1.157437
	19.510000	1.218680
	19.515000	1.192894
	19.520000	1.134873
	19.525000	1.157437
	19.530000	1.205787
	19.535000	1.192894
	19.540000	1.128426
	19.545000	1.154213
	19.550000	1.212234
	19.555000	1.189670
	19.560000	1.128426
	19.565000	1.154213
	19.570000	1.209010
	19.575000	1.189670
	19.580000	1.131650
	19.585000	1.154213
	19.590000	1.218680
	19.595000	1.189670
	19.600000	1.121980
	19.605000	1.150990
	19.610000	1.205787
	19.615000	1.189670
	19.620000	1.128426
	19.625000	1.157437
	19.630000	1.215457
	19.635000	1.189670
	19.640000	1.125203
	19.645000	1.150990
	19.650000	1.209010
	19.655000	1.189670
	19.660000	1.128426
	19.665000	1.150990
	19.670000	1.205787
	19.675000	1.180000
	19.680000	1.121980
	19.685000	1.154213
	19.690000	1.205787
	19.695000	1.176777
	19.700000	1.118756
	19.705000	1.141320
	19.710000	1.209010
	19.715000	1.183223
	19.720000	1.118756
	19.725000	1.147767
	19.730000	1.202564
	19.735000	1.176777
	19.740000	1.112310
	19.745000	1.141320
	19.750000	1.199340
	19.755000	1.180000
	19.760000	1.115533
	19.765000	1.138096
	19.770000	1.209010
	19.775000	1.173553
	19.780000	1.112310
	19.785000	1.144543
	19.790000	1.199340
	19.795000	1.173553
	19.800000	1.115533
	19.805000	1.141320
	19.810000	1.199340
	19.815000	1.173553
	19.820000	1.115533
	19.825000	1.141320
	19.830000	1.205787
	19.835000	1.173553
	19.840000	1.118756
	19.845000	1.147767
	19.850000	1.199340
	19.855000	1.173553
	19.860000	1.121980
	19.865000	1.144543
	19.870000	1.209010
	19.875000	1.176777
	19.880000	1.121980
	19.885000	1.154213
	19.890000	1.209010
	19.895000	1.186447
	19.900000	1.121980
	19.905000	1.150990
	19.910000	1.212234
	19.915000	1.186447
	19.920000	1.125203
	19.925000	1.167107
	19.930000	1.215457
	19.935000	1.189670
	19.940000	1.134873
	19.945000	1.170330
	19.950000	1.225127
	19.955000	1.199340
	19.960000	1.138096
	19.965000	1.170330
	19.970000	1.231574
	19.975000	1.199340
	19.980000	1.141320
	19.985000	1.176777
	19.990000	1.238021
	19.995000	1.212234
	20.000000	1.150990
	20.005000	1.180000
	20.010000	1.244467
	20.015000	1.215457
	20.020000	1.160660
	20.025000	1.199340
	20.030000	1.250914
	20.035000	1.225127
	20.040000	1.170330
	20.045000	1.202564
	20.050000	1.260584
	20.055000	1.234797
	20.060000	1.183223
	20.065000	1.209010
	20.070000	1.270254
	20.075000	1.238021
	20.080000	1.192894
	20.085000	1.225127
	20.090000	1.279924
	20.095000	1.257361
	20.100000	1.202564
	20.105000	1.238021
	20.110000	1.296041
	20.115000	1.270254
	20.120000	1.218680
	20.125000	1.254137
	20.130000	1.308934
	20.135000	1.276701
	20.140000	1.228351
	20.145000	1.270254
	20.150000	1.325051
	20.155000	1.302488
	20.160000	1.247691
	20.165000	1.276701
	20.170000	1.331498
	20.175000	1.315381
	20.180000	1.257361
	20.185000	1.302488
	20.190000	1.350838
	20.195000	1.331498
	20.200000	1.279924
	20.205000	1.315381
	20.210000	1.376625
	20.215000	1.341168
	20.220000	1.299264
	20.225000	1.328275
	20.230000	1.392742
	20.235000	1.363732
	20.240000	1.318605
	20.245000	1.354062
	20.250000	1.412082
	20.255000	1.383072
	20.260000	1.328275
	20.265000	1.366955
	20.270000	1.428199
	20.275000	1.392742
	20.280000	1.347615
	20.285000	1.383072
	20.290000	1.434645
	20.295000	1.405635
	20.300000	1.357285
	20.305000	1.392742
	20.310000	1.447539
	20.315000	1.415305
	20.320000	1.360508
	20.325000	1.389518
	20.330000	1.447539
	20.335000	1.415305
	20.340000	1.363732
	20.345000	1.399189
	20.350000	1.453986
	20.355000	1.418529
	20.360000	1.363732
	20.365000	1.395965
	20.370000	1.447539
	20.375000	1.418529
	20.380000	1.363732
	20.385000	1.399189
	20.390000	1.453986
	20.395000	1.415305
	20.400000	1.360508
	20.405000	1.395965
	20.410000	1.447539
	20.415000	1.418529
	20.420000	1.360508
	20.425000	1.392742
	20.430000	1.444316
	20.435000	1.412082
	20.440000	1.360508
	20.445000	1.386295
	20.450000	1.441092
	20.455000	1.405635
	20.460000	1.350838
	20.465000	1.399189
	20.470000	1.444316
	20.475000	1.408859
	20.480000	1.347615
	20.485000	1.383072
	20.490000	1.428199
	20.495000	1.395965
	20.500000	1.344391
	20.505000	1.370178
	20.510000	1.421752
	20.515000	1.386295
	20.520000	1.334721
	20.525000	1.360508
	20.530000	1.412082
	20.535000	1.376625
	20.540000	1.331498
	20.545000	1.357285
	20.550000	1.402412
	20.555000	1.370178
	20.560000	1.321828
	20.565000	1.354062
	20.570000	1.402412
	20.575000	1.363732
	20.580000	1.305711
	20.585000	1.344391
	20.590000	1.386295
	20.595000	1.347615
	20.600000	1.292818
	20.605000	1.331498
	20.610000	1.379848
	20.615000	1.337945
	20.620000	1.292818
	20.625000	1.321828
	20.630000	1.373402
	20.635000	1.334721
	20.640000	1.283148
	20.645000	1.315381
	20.650000	1.363732
	20.655000	1.334721
	20.660000	1.289594
	20.665000	1.321828
	20.670000	1.376625
	20.675000	1.344391
	20.680000	1.308934
	20.685000	1.350838
	20.690000	1.415305
	20.695000	1.389518
	20.700000	1.357285
	20.705000	1.412082
	20.710000	1.476549
	20.715000	1.453986
	20.720000	1.421752
	20.725000	1.476549
	20.730000	1.541016
	20.735000	1.524900
	20.740000	1.489443
	20.745000	1.534570
	20.750000	1.592590
	20.755000	1.570027
	20.760000	1.528123
	20.765000	1.566803
	20.770000	1.615154
	20.775000	1.576473
	20.780000	1.531346
	20.785000	1.566803
	20.790000	1.599037
	20.795000	1.566803
	20.800000	1.515229
	20.805000	1.544240
	20.810000	1.576473
	20.815000	1.524900
	20.820000	1.473326
	20.825000	1.495889
	20.830000	1.534570
	20.835000	1.476549
	20.840000	1.415305
	20.845000	1.441092
	20.850000	1.473326
	20.855000	1.428199
	20.860000	1.370178
	20.865000	1.386295
	20.870000	1.434645
	20.875000	1.386295
	20.880000	1.337945
	20.885000	1.373402
	20.890000	1.412082
	20.895000	1.373402
	20.900000	1.328275
	20.905000	1.366955
	20.910000	1.415305
	20.915000	1.383072
	20.920000	1.337945
	20.925000	1.383072
	20.930000	1.431422
	20.935000	1.402412
	20.940000	1.363732
	20.945000	1.412082
	20.950000	1.463656
	20.955000	1.437869
	20.960000	1.399189
	20.965000	1.453986
	20.970000	1.508783
	20.975000	1.489443
	20.980000	1.457209
	20.985000	1.502336
	20.990000	1.563580
	20.995000	1.547463
	21.000000	1.508783
	21.005000	1.557133
	21.010000	1.611930
	21.015000	1.579697
	21.020000	1.534570
	21.025000	1.582920
	21.030000	1.631270
	21.035000	1.592590
	21.040000	1.547463
	21.045000	1.586143
	21.050000	1.634494
	21.055000	1.592590
	21.060000	1.547463
	21.065000	1.579697
	21.070000	1.624824
	21.075000	1.579697
	21.080000	1.531346
	21.085000	1.570027
	21.090000	1.608707
	21.095000	1.566803
	21.100000	1.518453
	21.105000	1.557133
	21.110000	1.592590
	21.115000	1.557133
	21.120000	1.502336
	21.125000	1.544240
	21.130000	1.589367
	21.135000	1.550686
	21.140000	1.499113
	21.145000	1.537793
	21.150000	1.589367
	21.155000	1.537793
	21.160000	1.492666
	21.165000	1.528123
	21.170000	1.573250
	21.175000	1.534570
	21.180000	1.492666
	21.185000	1.531346
	21.190000	1.570027
	21.195000	1.528123
	21.200000	1.482996
	21.205000	1.524900
	21.210000	1.563580
	21.215000	1.521676
	21.220000	1.473326
	21.225000	1.512006
	21.230000	1.553910
	21.235000	1.515229
	21.240000	1.470102
	21.245000	1.508783
	21.250000	1.550686
	21.255000	1.505559
	21.260000	1.457209
	21.265000	1.492666
	21.270000	1.541016
	21.275000	1.499113
	21.280000	1.450762
	21.285000	1.492666
	21.290000	1.537793
	21.295000	1.489443
	21.300000	1.450762
	21.305000	1.479773
	21.310000	1.521676
	21.315000	1.476549
	21.320000	1.434645
	21.325000	1.473326
	21.330000	1.515229
	21.335000	1.470102
	21.340000	1.418529
	21.345000	1.463656
	21.350000	1.502336
	21.355000	1.444316
	21.360000	1.408859
	21.365000	1.447539
	21.370000	1.479773
	21.375000	1.444316
	21.380000	1.399189
	21.385000	1.437869
	21.390000	1.479773
	21.395000	1.428199
	21.400000	1.379848
	21.405000	1.421752
	21.410000	1.457209
	21.415000	1.408859
	21.420000	1.363732
	21.425000	1.405635
	21.430000	1.441092
	21.435000	1.389518
	21.440000	1.337945
	21.445000	1.373402
	21.450000	1.405635
	21.455000	1.360508
	21.460000	1.312158
	21.465000	1.347615
	21.470000	1.383072
	21.475000	1.334721
	21.480000	1.292818
	21.485000	1.328275
	21.490000	1.363732
	21.495000	1.315381
	21.500000	1.273478
	21.505000	1.312158
	21.510000	1.341168
	21.515000	1.289594
	21.520000	1.247691
	21.525000	1.289594
	21.530000	1.321828
	21.535000	1.279924
	21.540000	1.234797
	21.545000	1.273478
	21.550000	1.308934
	21.555000	1.263807
	21.560000	1.225127
	21.565000	1.263807
	21.570000	1.296041
	21.575000	1.250914
	21.580000	1.209010
	21.585000	1.247691
	21.590000	1.292818
	21.595000	1.241244
	21.600000	1.199340
	21.605000	1.244467
	21.610000	1.279924
	21.615000	1.231574
	21.620000	1.189670
	21.625000	1.231574
	21.630000	1.267031
	21.635000	1.221904
	21.640000	1.180000
	21.645000	1.225127
	21.650000	1.263807
	21.655000	1.215457
	21.660000	1.167107
	21.665000	1.209010
	21.670000	1.244467
	21.675000	1.202564
	21.680000	1.154213
	21.685000	1.199340
	21.690000	1.234797
	21.695000	1.192894
	21.700000	1.147767
	21.705000	1.186447
	21.710000	1.228351
	21.715000	1.176777
	21.720000	1.131650
	21.725000	1.167107
	21.730000	1.205787
	21.735000	1.154213
	21.740000	1.109086
	21.745000	1.157437
	21.750000	1.183223
	21.755000	1.141320
	21.760000	1.102640
	21.765000	1.131650
	21.770000	1.170330
	21.775000	1.118756
	21.780000	1.076853
	21.785000	1.115533
	21.790000	1.150990
	21.795000	1.099416
	21.800000	1.057512
	21.805000	1.096193
	21.810000	1.131650
	21.815000	1.083299
	21.820000	1.031726
	21.825000	1.083299
	21.830000	1.112310
	21.835000	1.067183
	21.840000	1.028502
	21.845000	1.063959
	21.850000	1.102640
	21.855000	1.044619
	21.860000	1.009162
	21.865000	1.044619
	21.870000	1.083299
	21.875000	1.038172
	21.880000	0.993045
	21.885000	1.034949
	21.890000	1.067183
	21.895000	1.025279
	21.900000	0.976929
	21.905000	1.022056
	21.910000	1.063959
	21.915000	1.018832
	21.920000	0.970482
	21.925000	1.015609
	21.930000	1.054289
	21.935000	0.999492
	21.940000	0.960812
	21.945000	1.009162
	21.950000	1.044619
	21.955000	0.993045
	21.960000	0.964035
	21.965000	1.002715
	21.970000	1.031726
	21.975000	0.983375
	21.980000	0.944695
	21.985000	0.993045
	21.990000	1.031726
	21.995000	0.980152
	22.000000	0.935025
	22.005000	0.983375
	22.010000	1.018832
	22.015000	0.970482
	22.020000	0.931801
	22.025000	0.973705
	22.030000	1.009162
	22.035000	0.960812
	22.040000	0.912461
	22.045000	0.967258
	22.050000	1.009162
	22.055000	0.947918
	22.060000	0.915685
	22.065000	0.964035
	22.070000	0.989822
	22.075000	0.947918
	22.080000	0.909238
	22.085000	0.951142
	22.090000	0.993045
	22.095000	0.941472
	22.100000	0.899568
	22.105000	0.944695
	22.110000	0.983375
	22.115000	0.928578
	22.120000	0.893121
	22.125000	0.944695
	22.130000	0.983375
	22.135000	0.922131
	22.140000	0.889898
	22.145000	0.938248
	22.150000	0.970482
	22.155000	0.928578
	22.160000	0.880228
	22.165000	0.941472
	22.170000	0.970482
	22.175000	0.918908
	22.180000	0.880228
	22.185000	0.935025
	22.190000	0.967258
	22.195000	0.918908
	22.200000	0.880228
	22.205000	0.928578
	22.210000	0.967258
	22.215000	0.909238
	22.220000	0.873781
	22.225000	0.922131
	22.230000	0.960812
	22.235000	0.912461
	22.240000	0.877004
	22.245000	0.925355
	22.250000	0.954365
	22.255000	0.906015
	22.260000	0.877004
	22.265000	0.928578
	22.270000	0.964035
	22.275000	0.902791
	22.280000	0.867334
	22.285000	0.928578
	22.290000	0.957588
	22.295000	0.906015
	22.300000	0.877004
	22.305000	0.925355
	22.310000	0.957588
	22.315000	0.899568
	22.320000	0.870558
	22.325000	0.925355
	22.330000	0.954365
	22.335000	0.906015
	22.340000	0.870558
	22.345000	0.922131
	22.350000	0.951142
	22.355000	0.909238
	22.360000	0.864111
	22.365000	0.918908
	22.370000	0.960812
	22.375000	0.899568
	22.380000	0.864111
	22.385000	0.922131
	22.390000	0.954365
	22.395000	0.899568
	22.400000	0.864111
	22.405000	0.918908
	22.410000	0.954365
	22.415000	0.893121
	22.420000	0.870558
	22.425000	0.922131
	22.430000	0.954365
	22.435000	0.899568
	22.440000	0.867334
	22.445000	0.912461
	22.450000	0.957588
	22.455000	0.893121
	22.460000	0.870558
	22.465000	0.918908
	22.470000	0.954365
	22.475000	0.896345
	22.480000	0.864111
	22.485000	0.915685
	22.490000	0.954365
	22.495000	0.899568
	22.500000	0.857664
	22.505000	0.909238
	22.510000	0.944695
	22.515000	0.893121
	22.520000	0.857664
	22.525000	0.922131
	22.530000	0.947918
	22.535000	0.896345
	22.540000	0.857664
	22.545000	0.915685
	22.550000	0.947918
	22.555000	0.896345
	22.560000	0.860888
	22.565000	0.915685
	22.570000	0.951142
	22.575000	0.889898
	22.580000	0.857664
	22.585000	0.915685
	22.590000	0.941472
	22.595000	0.889898
	22.600000	0.854441
	22.605000	0.909238
	22.610000	0.947918
	22.615000	0.883451
	22.620000	0.854441
	22.625000	0.912461
	22.630000	0.938248
	22.635000	0.883451
	22.640000	0.847994
	22.645000	0.902791
	22.650000	0.935025
	22.655000	0.877004
	22.660000	0.847994
	22.665000	0.906015
	22.670000	0.931801
	22.675000	0.883451
	22.680000	0.844771
	22.685000	0.902791
	22.690000	0.931801
	22.695000	0.880228
	22.700000	0.844771
	22.705000	0.902791
	22.710000	0.938248
	22.715000	0.877004
	22.720000	0.841547
	22.725000	0.899568
	22.730000	0.931801
	22.735000	0.877004
	22.740000	0.844771
	22.745000	0.906015
	22.750000	0.938248
	22.755000	0.880228
	22.760000	0.847994
	22.765000	0.902791
	22.770000	0.935025
	22.775000	0.873781
	22.780000	0.844771
	22.785000	0.906015
	22.790000	0.931801
	22.795000	0.877004
	22.800000	0.851218
	22.805000	0.909238
	22.810000	0.938248
	22.815000	0.886674
	22.820000	0.851218
	22.825000	0.909238
	22.830000	0.941472
	22.835000	0.886674
	22.840000	0.851218
	22.845000	0.915685
	22.850000	0.944695
	22.855000	0.880228
	22.860000	0.857664
	22.865000	0.918908
	22.870000	0.941472
	22.875000	0.883451
	22.880000	0.854441
	22.885000	0.915685
	22.890000	0.951142
	22.895000	0.883451
	22.900000	0.864111
	22.905000	0.915685
	22.910000	0.947918
	22.915000	0.886674
	22.920000	0.857664
	22.925000	0.922131
	22.930000	0.947918
	22.935000	0.893121
	22.940000	0.867334
	22.945000	0.925355
	22.950000	0.954365
	22.955000	0.893121
	22.960000	0.864111
	22.965000	0.928578
	22.970000	0.954365
	22.975000	0.889898
	22.980000	0.864111
	22.985000	0.931801
	22.990000	0.954365
	22.995000	0.899568
	23.000000	0.867334
	23.005000	0.928578
	23.010000	0.960812
	23.015000	0.896345
	23.020000	0.880228
	23.025000	0.935025
	23.030000	0.954365
	23.035000	0.899568
	23.040000	0.870558
	23.045000	0.928578
	23.050000	0.954365
	23.055000	0.883451
	23.060000	0.867334
	23.065000	0.925355
	23.070000	0.951142
	23.075000	0.889898
	23.080000	0.860888
	23.085000	0.915685
	23.090000	0.947918
	23.095000	0.886674
	23.100000	0.860888
	23.105000	0.922131
	23.110000	0.938248
	23.115000	0.883451
	23.120000	0.854441
	23.125000	0.909238
	23.130000	0.938248
	23.135000	0.880228
	23.140000	0.854441
	23.145000	0.906015
	23.150000	0.938248
	23.155000	0.873781
	23.160000	0.844771
	23.165000	0.909238
	23.170000	0.928578
	23.175000	0.864111
	23.180000	0.847994
	23.185000	0.906015
	23.190000	0.925355
	23.195000	0.864111
	23.200000	0.847994
	23.205000	0.893121
	23.210000	0.931801
	23.215000	0.864111
	23.220000	0.841547
	23.225000	0.896345
	23.230000	0.918908
	23.235000	0.864111
	23.240000	0.841547
	23.245000	0.902791
	23.250000	0.928578
	23.255000	0.860888
	23.260000	0.838324
	23.265000	0.899568
	23.270000	0.922131
	23.275000	0.857664
	23.280000	0.838324
	23.285000	0.902791
	23.290000	0.922131
	23.295000	0.870558
	23.300000	0.841547
	23.305000	0.902791
	23.310000	0.925355
	23.315000	0.870558
	23.320000	0.841547
	23.325000	0.896345
	23.330000	0.931801
	23.335000	0.870558
	23.340000	0.841547
	23.345000	0.902791
	23.350000	0.931801
	23.355000	0.867334
	23.360000	0.844771
	23.365000	0.906015
	23.370000	0.931801
	23.375000	0.864111
	23.380000	0.844771
	23.385000	0.906015
	23.390000	0.935025
	23.395000	0.864111
	23.400000	0.841547
	23.405000	0.906015
	23.410000	0.928578
	23.415000	0.867334
	23.420000	0.844771
	23.425000	0.902791
	23.430000	0.928578
	23.435000	0.867334
	23.440000	0.844771
	23.445000	0.909238
	23.450000	0.931801
	23.455000	0.870558
	23.460000	0.844771
	23.465000	0.915685
	23.470000	0.931801
	23.475000	0.867334
	23.480000	0.844771
	23.485000	0.912461
	23.490000	0.938248
	23.495000	0.873781
	23.500000	0.851218
	23.505000	0.909238
	23.510000	0.938248
	23.515000	0.867334
	23.520000	0.851218
	23.525000	0.915685
	23.530000	0.935025
	23.535000	0.867334
	23.540000	0.847994
	23.545000	0.915685
	23.550000	0.938248
	23.555000	0.877004
	23.560000	0.847994
	23.565000	0.922131
	23.570000	0.941472
	23.575000	0.877004
	23.580000	0.857664
	23.585000	0.912461
	23.590000	0.935025
	23.595000	0.873781
	23.600000	0.851218
	23.605000	0.915685
	23.610000	0.941472
	23.615000	0.880228
	23.620000	0.857664
	23.625000	0.912461
	23.630000	0.941472
	23.635000	0.877004
	23.640000	0.867334
	23.645000	0.928578
	23.650000	0.944695
	23.655000	0.877004
	23.660000	0.860888
	23.665000	0.928578
	23.670000	0.947918
	23.675000	0.877004
	23.680000	0.857664
	23.685000	0.922131
	23.690000	0.947918
	23.695000	0.886674
	23.700000	0.864111
	23.705000	0.925355
	23.710000	0.941472
	23.715000	0.883451
	23.720000	0.864111
	23.725000	0.928578
	23.730000	0.944695
	23.735000	0.880228
	23.740000	0.870558
	23.745000	0.931801
	23.750000	0.947918
	23.755000	0.880228
	23.760000	0.867334
	23.765000	0.931801
	23.770000	0.954365
	23.775000	0.883451
	23.780000	0.867334
	23.785000	0.928578
	23.790000	0.951142
	23.795000	0.883451
	23.800000	0.870558
	23.805000	0.935025
	23.810000	0.944695
	23.815000	0.883451
	23.820000	0.864111
	23.825000	0.925355
	23.830000	0.951142
	23.835000	0.877004
	23.840000	0.867334
	23.845000	0.931801
	23.850000	0.941472
	23.855000	0.883451
	23.860000	0.867334
	23.865000	0.925355
	23.870000	0.944695
	23.875000	0.877004
	23.880000	0.857664
	23.885000	0.931801
	23.890000	0.947918
	23.895000	0.877004
	23.900000	0.867334
	23.905000	0.928578
	23.910000	0.944695
	23.915000	0.880228
	23.920000	0.867334
	23.925000	0.931801
	23.930000	0.941472
	23.935000	0.877004
	23.940000	0.860888
	23.945000	0.925355
	23.950000	0.938248
	23.955000	0.864111
	23.960000	0.864111
	23.965000	0.922131
	23.970000	0.938248
	23.975000	0.873781
	23.980000	0.857664
	23.985000	0.925355
	23.990000	0.941472
	23.995000	0.873781
	24.000000	0.860888
	24.005000	0.925355
	24.010000	0.938248
	24.015000	0.870558
	24.020000	0.860888
	24.025000	0.918908
	24.030000	0.935025
	24.035000	0.864111
	24.040000	0.857664
	24.045000	0.915685
	24.050000	0.941472
	24.055000	0.864111
	24.060000	0.857664
	24.065000	0.922131
	24.070000	0.935025
	24.075000	0.873781
	24.080000	0.857664
	24.085000	0.925355
	24.090000	0.931801
	24.095000	0.867334
	24.100000	0.851218
	24.105000	0.922131
	24.110000	0.931801
	24.115000	0.867334
	24.120000	0.857664
	24.125000	0.918908
	24.130000	0.938248
	24.135000	0.864111
	24.140000	0.854441
	24.145000	0.922131
	24.150000	0.928578
	24.155000	0.857664
	24.160000	0.857664
	24.165000	0.918908
	24.170000	0.935025
	24.175000	0.864111
	24.180000	0.854441
	24.185000	0.922131
	24.190000	0.931801
	24.195000	0.860888
	24.200000	0.851218
	24.205000	0.915685
	24.210000	0.928578
	24.215000	0.864111
	24.220000	0.851218
	24.225000	0.922131
	24.230000	0.928578
	24.235000	0.860888
	24.240000	0.851218
	24.245000	0.922131
	24.250000	0.925355
	24.255000	0.860888
	24.260000	0.854441
	24.265000	0.925355
	24.270000	0.928578
	24.275000	0.860888
	24.280000	0.857664
	24.285000	0.922131
	24.290000	0.928578
	24.295000	0.857664
	24.300000	0.854441
	24.305000	0.912461
	24.310000	0.922131
	24.315000	0.860888
	24.320000	0.847994
	24.325000	0.918908
	24.330000	0.922131
	24.335000	0.854441
	24.340000	0.847994
	24.345000	0.918908
	24.350000	0.928578
	24.355000	0.857664
	24.360000	0.847994
	24.365000	0.912461
	24.370000	0.915685
	24.375000	0.857664
	24.380000	0.847994
	24.385000	0.915685
	24.390000	0.928578
	24.395000	0.857664
	24.400000	0.851218
	24.405000	0.909238
	24.410000	0.928578
	24.415000	0.857664
	24.420000	0.851218
	24.425000	0.915685
	24.430000	0.925355
	24.435000	0.851218
	24.440000	0.851218
	24.445000	0.915685
	24.450000	0.918908
	24.455000	0.857664
	24.460000	0.851218
	24.465000	0.915685
	24.470000	0.925355
	24.475000	0.857664
	24.480000	0.851218
	24.485000	0.918908
	24.490000	0.922131
	24.495000	0.864111
	24.500000	0.851218
	24.505000	0.915685
	24.510000	0.922131
	24.515000	0.854441
	24.520000	0.857664
	24.525000	0.922131
	24.530000	0.928578
	24.535000	0.860888
	24.540000	0.860888
	24.545000	0.918908
	24.550000	0.922131
	24.555000	0.864111
	24.560000	0.854441
	24.565000	0.925355
	24.570000	0.922131
	24.575000	0.857664
	24.580000	0.857664
	24.585000	0.918908
	24.590000	0.928578
	24.595000	0.857664
	24.600000	0.857664
	24.605000	0.922131
	24.610000	0.928578
	24.615000	0.860888
	24.620000	0.851218
	24.625000	0.925355
	24.630000	0.928578
	24.635000	0.854441
	24.640000	0.854441
	24.645000	0.925355
	24.650000	0.931801
	24.655000	0.854441
	24.660000	0.854441
	24.665000	0.925355
	24.670000	0.925355
	24.675000	0.867334
	24.680000	0.857664
	24.685000	0.918908
	24.690000	0.925355
	24.695000	0.854441
	24.700000	0.854441
	24.705000	0.925355
	24.710000	0.928578
	24.715000	0.857664
	24.720000	0.851218
	24.725000	0.918908
	24.730000	0.922131
	24.735000	0.854441
	24.740000	0.851218
	24.745000	0.922131
	24.750000	0.925355
	24.755000	0.854441
	24.760000	0.851218
	24.765000	0.918908
	24.770000	0.922131
	24.775000	0.851218
	24.780000	0.854441
	24.785000	0.922131
	24.790000	0.925355
	24.795000	0.847994
	24.800000	0.851218
	24.805000	0.915685
	24.810000	0.925355
	24.815000	0.851218
	24.820000	0.851218
	24.825000	0.922131
	24.830000	0.922131
	24.835000	0.851218
	24.840000	0.844771
	24.845000	0.922131
	24.850000	0.928578
	24.855000	0.847994
	24.860000	0.860888
	24.865000	0.925355
	24.870000	0.918908
	24.875000	0.851218
	24.880000	0.857664
	24.885000	0.915685
	24.890000	0.922131
	24.895000	0.857664
	24.900000	0.857664
	24.905000	0.918908
	24.910000	0.918908
	24.915000	0.851218
	24.920000	0.851218
	24.925000	0.922131
	24.930000	0.915685
	24.935000	0.854441
	24.940000	0.851218
	24.945000	0.922131
	24.950000	0.918908
	24.955000	0.851218
	24.960000	0.851218
	24.965000	0.922131
	24.970000	0.915685
	24.975000	0.854441
	24.980000	0.851218
	24.985000	0.918908
	24.990000	0.918908
	24.995000	0.851218
	25.000000	0.851218
	25.005000	0.915685
	25.010000	0.912461
	25.015000	0.854441
	25.020000	0.851218
	25.025000	0.915685
	25.030000	0.918908
	25.035000	0.847994
	25.040000	0.851218
	25.045000	0.915685
	25.050000	0.909238
	25.055000	0.844771
	25.060000	0.847994
	25.065000	0.912461
	25.070000	0.909238
	25.075000	0.841547
	25.080000	0.854441
	25.085000	0.912461
	25.090000	0.909238
	25.095000	0.844771
	25.100000	0.851218
	25.105000	0.906015
	25.110000	0.912461
	25.115000	0.838324
	25.120000	0.841547
	25.125000	0.915685
	25.130000	0.909238
	25.135000	0.844771
	25.140000	0.841547
	25.145000	0.906015
	25.150000	0.902791
	25.155000	0.838324
	25.160000	0.847994
	25.165000	0.909238
	25.170000	0.902791
	25.175000	0.838324
	25.180000	0.838324
	25.185000	0.909238
	25.190000	0.902791
	25.195000	0.838324
	25.200000	0.841547
	25.205000	0.906015
	25.210000	0.896345
	25.215000	0.828654
	25.220000	0.831877
	25.225000	0.899568
	25.230000	0.896345
	25.235000	0.822207
	25.240000	0.828654
	25.245000	0.902791
	25.250000	0.889898
	25.255000	0.825431
	25.260000	0.844771
	25.265000	0.902791
	25.270000	0.902791
	25.275000	0.838324
	25.280000	0.851218
	25.285000	0.928578
	25.290000	0.928578
	25.295000	0.860888
	25.300000	0.873781
	25.305000	0.941472
	25.310000	0.944695
	25.315000	0.883451
	25.320000	0.896345
	25.325000	0.964035
	25.330000	0.970482
	25.335000	0.906015
	25.340000	0.915685
	25.345000	0.986599
	25.350000	0.973705
	25.355000	0.922131
	25.360000	0.938248
	25.365000	1.005939
	25.370000	1.015609
	25.375000	0.938248
	25.380000	0.954365
	25.385000	1.031726
	25.390000	1.022056
	25.395000	0.967258
	25.400000	0.980152
	25.405000	1.051066
	25.410000	1.047842
	25.415000	0.983375
	25.420000	0.996269
	25.425000	1.076853
	25.430000	1.067183
	25.435000	1.005939
	25.440000	1.022056
	25.445000	1.089746
	25.450000	1.083299
	25.455000	1.028502
	25.460000	1.034949
	25.465000	1.102640
	25.470000	1.096193
	25.475000	1.044619
	25.480000	1.051066
	25.485000	1.115533
	25.490000	1.109086
	25.495000	1.047842
	25.500000	1.060736
	25.505000	1.128426
	25.510000	1.125203
	25.515000	1.060736
	25.520000	1.070406
	25.525000	1.138096
	25.530000	1.125203
	25.535000	1.070406
	25.540000	1.080076
	25.545000	1.144543
	25.550000	1.131650
	25.555000	1.076853
	25.560000	1.086523
	25.565000	1.150990
	25.570000	1.134873
	25.575000	1.073629
	25.580000	1.083299
	25.585000	1.141320
	25.590000	1.131650
	25.595000	1.067183
	25.600000	1.080076
	25.605000	1.138096
	25.610000	1.125203
	25.615000	1.054289
	25.620000	1.067183
	25.625000	1.125203
	25.630000	1.115533
	25.635000	1.054289
	25.640000	1.057512
	25.645000	1.118756
	25.650000	1.118756
	25.655000	1.038172
	25.660000	1.054289
	25.665000	1.115533
	25.670000	1.105863
	25.675000	1.038172
	25.680000	1.047842
	25.685000	1.109086
	25.690000	1.092969
	25.695000	1.028502
	25.700000	1.044619
	25.705000	1.102640
	25.710000	1.089746
	25.715000	1.031726
	25.720000	1.041396
	25.725000	1.096193
	25.730000	1.083299
	25.735000	1.022056
	25.740000	1.031726
	25.745000	1.092969
	25.750000	1.083299
	25.755000	1.015609
	25.760000	1.028502
	25.765000	1.092969
	25.770000	1.076853
	25.775000	1.018832
	25.780000	1.031726
	25.785000	1.083299
	25.790000	1.073629
	25.795000	1.009162
	25.800000	1.022056
	25.805000	1.083299
	25.810000	1.070406
	25.815000	1.005939
	25.820000	1.022056
	25.825000	1.080076
	25.830000	1.070406
	25.835000	1.005939
	25.840000	1.015609
	25.845000	1.080076
	25.850000	1.054289
	25.855000	0.993045
	25.860000	1.005939
	25.865000	1.063959
	25.870000	1.051066
	25.875000	0.989822
	25.880000	1.005939
	25.885000	1.060736
	25.890000	1.044619
	25.895000	0.980152
	25.900000	1.002715
	25.905000	1.057512
	25.910000	1.044619
	25.915000	0.980152
	25.920000	0.986599
	25.925000	1.054289
	25.930000	1.034949
	25.935000	0.967258
	25.940000	0.983375
	25.945000	1.047842
	25.950000	1.031726
	25.955000	0.967258
	25.960000	0.993045
	25.965000	1.054289
	25.970000	1.041396
	25.975000	0.989822
	25.980000	1.005939
	25.985000	1.083299
	25.990000	1.073629
	25.995000	1.022056
	26.000000	1.051066
	26.005000	1.125203
	26.010000	1.121980
	26.015000	1.070406
	26.020000	1.105863
	26.025000	1.180000
	26.030000	1.180000
	26.035000	1.138096
	26.040000	1.170330
	26.045000	1.250914
	26.050000	1.250914
	26.055000	1.202564
	26.060000	1.241244
	26.065000	1.312158
	26.070000	1.302488
	26.075000	1.260584
	26.080000	1.292818
	26.085000	1.360508
	26.090000	1.350838
	26.095000	1.296041
	26.100000	1.308934
	26.105000	1.376625
	26.110000	1.347615
	26.115000	1.283148
	26.120000	1.292818
	26.125000	1.341168
	26.130000	1.318605
	26.135000	1.254137
	26.140000	1.260584
	26.145000	1.302488
	26.150000	1.276701
	26.155000	1.202564
	26.160000	1.209010
	26.165000	1.257361
	26.170000	1.228351
	26.175000	1.163883
	26.180000	1.176777
	26.185000	1.225127
	26.190000	1.205787
	26.195000	1.147767
	26.200000	1.167107
	26.205000	1.221904
	26.210000	1.209010
	26.215000	1.150990
	26.220000	1.180000
	26.225000	1.241244
	26.230000	1.234797
	26.235000	1.173553
	26.240000	1.196117
	26.245000	1.263807
	26.250000	1.244467
	26.255000	1.205787
	26.260000	1.221904
	26.265000	1.283148
	26.270000	1.267031
	26.275000	1.215457
	26.280000	1.231574
	26.285000	1.296041
	26.290000	1.283148
	26.295000	1.218680
	26.300000	1.250914
	26.305000	1.308934
	26.310000	1.302488
	26.315000	1.244467
	26.320000	1.270254
	26.325000	1.334721
	26.330000	1.308934
	26.335000	1.257361
	26.340000	1.276701
	26.345000	1.328275
	26.350000	1.308934
	26.355000	1.247691
	26.360000	1.270254
	26.365000	1.321828
	26.370000	1.299264
	26.375000	1.231574
	26.380000	1.247691
	26.385000	1.305711
	26.390000	1.279924
	26.395000	1.215457
	26.400000	1.241244
	26.405000	1.296041
	26.410000	1.263807
	26.415000	1.205787
	26.420000	1.225127
	26.425000	1.279924
	26.430000	1.257361
	26.435000	1.202564
	26.440000	1.215457
	26.445000	1.276701
	26.450000	1.257361
	26.455000	1.189670
	26.460000	1.215457
	26.465000	1.270254
	26.470000	1.247691
	26.475000	1.189670
	26.480000	1.218680
	26.485000	1.267031
	26.490000	1.250914
	26.495000	1.186447
	26.500000	1.209010
	26.505000	1.263807
	26.510000	1.247691
	26.515000	1.189670
	26.520000	1.205787
	26.525000	1.260584
	26.530000	1.238021
	26.535000	1.183223
	26.540000	1.205787
	26.545000	1.254137
	26.550000	1.234797
	26.555000	1.173553
	26.560000	1.192894
	26.565000	1.254137
	26.570000	1.225127
	26.575000	1.170330
	26.580000	1.183223
	26.585000	1.238021
	26.590000	1.212234
	26.595000	1.157437
	26.600000	1.183223
	26.605000	1.228351
	26.610000	1.202564
	26.615000	1.141320
	26.620000	1.170330
	26.625000	1.221904
	26.630000	1.192894
	26.635000	1.134873
	26.640000	1.150990
	26.645000	1.209010
	26.650000	1.176777
	26.655000	1.115533
	26.660000	1.134873
	26.665000	1.186447
	26.670000	1.160660
	26.675000	1.096193
	26.680000	1.112310
	26.685000	1.157437
	26.690000	1.128426
	26.695000	1.067183
	26.700000	1.086523
	26.705000	1.134873
	26.710000	1.096193
	26.715000	1.034949
	26.720000	1.060736
	26.725000	1.102640
	26.730000	1.070406
	26.735000	1.009162
	26.740000	1.025279
	26.745000	1.070406
	26.750000	1.044619
	26.755000	0.986599
	26.760000	1.005939
	26.765000	1.051066
	26.770000	1.018832
	26.775000	0.954365
	26.780000	0.976929
	26.785000	1.031726
	26.790000	0.999492
	26.795000	0.941472
	26.800000	0.951142
	26.805000	1.009162
	26.810000	0.980152
	26.815000	0.922131
	26.820000	0.951142
	26.825000	0.996269
	26.830000	0.967258
	26.835000	0.902791
	26.840000	0.931801
	26.845000	0.980152
	26.850000	0.951142
	26.855000	0.893121
	26.860000	0.922131
	26.865000	0.964035
	26.870000	0.938248
	26.875000	0.886674
	26.880000	0.902791
	26.885000	0.960812
	26.890000	0.922131
	26.895000	0.860888
	26.900000	0.886674
	26.905000	0.941472
	26.910000	0.912461
	26.915000	0.851218
	26.920000	0.877004
	26.925000	0.925355
	26.930000	0.889898
	26.935000	0.831877
	26.940000	0.857664
	26.945000	0.902791
	26.950000	0.877004
	26.955000	0.815761
	26.960000	0.844771
	26.965000	0.889898
	26.970000	0.854441
	26.975000	0.789974
	26.980000	0.818984
	26.985000	0.867334
	26.990000	0.838324
	26.995000	0.773857
	27.000000	0.799644
	27.005000	0.851218
	27.010000	0.818984
	27.015000	0.757740
	27.020000	0.786750
	27.025000	0.838324
	27.030000	0.802867
	27.035000	0.744847
	27.040000	0.773857
	27.045000	0.818984
	27.050000	0.786750
	27.055000	0.725507
	27.060000	0.757740
	27.065000	0.812537
	27.070000	0.770634
	27.075000	0.722283
	27.080000	0.744847
	27.085000	0.799644
	27.090000	0.767410
	27.095000	0.699720
	27.100000	0.735177
	27.105000	0.793197
	27.110000	0.760963
	27.115000	0.699720
	27.120000	0.728730
	27.125000	0.777080
	27.130000	0.748070
	27.135000	0.696496
	27.140000	0.725507
	27.145000	0.773857
	27.150000	0.744847
	27.155000	0.683603
	27.160000	0.719060
	27.165000	0.767410
	27.170000	0.725507
	27.175000	0.673933
	27.180000	0.702943
	27.185000	0.760963
	27.190000	0.735177
	27.195000	0.680379
	27.200000	0.702943
	27.205000	0.754517
	27.210000	0.722283
	27.215000	0.667486
	27.220000	0.702943
	27.225000	0.748070
	27.230000	0.719060
	27.235000	0.667486
	27.240000	0.696496
	27.245000	0.748070
	27.250000	0.715836
	27.255000	0.657816
	27.260000	0.699720
	27.265000	0.751293
	27.270000	0.709390
	27.275000	0.657816
	27.280000	0.693273
	27.285000	0.744847
	27.290000	0.715836
	27.295000	0.654593
	27.300000	0.686826
	27.305000	0.735177
	27.310000	0.706166
	27.315000	0.648146
	27.320000	0.690050
	27.325000	0.731953
	27.330000	0.696496
	27.335000	0.638476
	27.340000	0.670709
	27.345000	0.725507
	27.350000	0.693273
	27.355000	0.641699
	27.360000	0.670709
	27.365000	0.722283
	27.370000	0.693273
	27.375000	0.632029
	27.380000	0.664263
	27.385000	0.719060
	27.390000	0.683603
	27.395000	0.628806
	27.400000	0.661039
	27.405000	0.715836
	27.410000	0.680379
	27.415000	0.622359
	27.420000	0.657816
	27.425000	0.712613
	27.430000	0.677156
	27.435000	0.622359
	27.440000	0.654593
	27.445000	0.702943
	27.450000	0.677156
	27.455000	0.615912
	27.460000	0.651369
	27.465000	0.702943
	27.470000	0.664263
	27.475000	0.612689
	27.480000	0.644923
	27.485000	0.699720
	27.490000	0.670709
	27.495000	0.606242
	27.500000	0.644923
	27.505000	0.702943
	27.510000	0.657816
	27.515000	0.612689
	27.520000	0.644923
	27.525000	0.702943
	27.530000	0.657816
	27.535000	0.609466
	27.540000	0.644923
	27.545000	0.699720
	27.550000	0.664263
	27.555000	0.606242
	27.560000	0.644923
	27.565000	0.702943
	27.570000	0.661039
	27.575000	0.606242
	27.580000	0.641699
	27.585000	0.699720
	27.590000	0.661039
	27.595000	0.606242
	27.600000	0.638476
	27.605000	0.696496
	27.610000	0.657816
	27.615000	0.609466
	27.620000	0.648146
	27.625000	0.696496
	27.630000	0.657816
	27.635000	0.609466
	27.640000	0.648146
	27.645000	0.702943
	27.650000	0.661039
	27.655000	0.609466
	27.660000	0.651369
	27.665000	0.702943
	27.670000	0.661039
	27.675000	0.609466
	27.680000	0.644923
	27.685000	0.706166
	27.690000	0.664263
	27.695000	0.612689
	27.700000	0.648146
	27.705000	0.702943
	27.710000	0.667486
	27.715000	0.615912
	27.720000	0.651369
	27.725000	0.709390
	27.730000	0.667486
	27.735000	0.609466
	27.740000	0.657816
	27.745000	0.706166
	27.750000	0.670709
	27.755000	0.615912
	27.760000	0.661039
	27.765000	0.709390
	27.770000	0.667486
	27.775000	0.612689
	27.780000	0.657816
	27.785000	0.709390
	27.790000	0.673933
	27.795000	0.622359
	27.800000	0.661039
	27.805000	0.712613
	27.810000	0.673933
	27.815000	0.628806
	27.820000	0.664263
	27.825000	0.719060
	27.830000	0.677156
	27.835000	0.622359
	27.840000	0.670709
	27.845000	0.722283
	27.850000	0.680379
	27.855000	0.625582
	27.860000	0.670709
	27.865000	0.722283
	27.870000	0.683603
	27.875000	0.625582
	27.880000	0.673933
	27.885000	0.722283
	27.890000	0.683603
	27.895000	0.632029
	27.900000	0.673933
	27.905000	0.725507
	27.910000	0.690050
	27.915000	0.638476
	27.920000	0.680379
	27.925000	0.735177
	27.930000	0.690050
	27.935000	0.638476
	27.940000	0.680379
	27.945000	0.735177
	27.950000	0.693273
	27.955000	0.641699
	27.960000	0.686826
	27.965000	0.735177
	27.970000	0.693273
	27.975000	0.644923
	27.980000	0.686826
	27.985000	0.741623
	27.990000	0.696496
	27.995000	0.648146
	28.000000	0.690050
	28.005000	0.744847
	28.010000	0.696496
	28.015000	0.651369
	28.020000	0.690050
	28.025000	0.744847
	28.030000	0.706166
	28.035000	0.654593
	28.040000	0.699720
	28.045000	0.744847
	28.050000	0.702943
	28.055000	0.661039
	28.060000	0.699720
	28.065000	0.744847
	28.070000	0.702943
	28.075000	0.657816
	28.080000	0.699720
	28.085000	0.754517
	28.090000	0.706166
	28.095000	0.657816
	28.100000	0.702943
	28.105000	0.748070
	28.110000	0.706166
	28.115000	0.661039
	28.120000	0.702943
	28.125000	0.751293
	28.130000	0.712613
	28.135000	0.664263
	28.140000	0.709390
	28.145000	0.751293
	28.150000	0.719060
	28.155000	0.664263
	28.160000	0.709390
	28.165000	0.760963
	28.170000	0.712613
	28.175000	0.661039
	28.180000	0.706166
	28.185000	0.760963
	28.190000	0.715836
	28.195000	0.670709
	28.200000	0.719060
	28.205000	0.760963
	28.210000	0.722283
	28.215000	0.677156
	28.220000	0.706166
	28.225000	0.767410
	28.230000	0.722283
	28.235000	0.673933
	28.240000	0.719060
	28.245000	0.764187
	28.250000	0.719060
	28.255000	0.677156
	28.260000	0.722283
	28.265000	0.764187
	28.270000	0.722283
	28.275000	0.670709
	28.280000	0.722283
	28.285000	0.764187
	28.290000	0.719060
	28.295000	0.673933
	28.300000	0.719060
	28.305000	0.767410
	28.310000	0.722283
	28.315000	0.673933
	28.320000	0.722283
	28.325000	0.770634
	28.330000	0.725507
	28.335000	0.673933
	28.340000	0.719060
	28.345000	0.767410
	28.350000	0.722283
	28.355000	0.673933
	28.360000	0.719060
	28.365000	0.770634
	28.370000	0.712613
	28.375000	0.677156
	28.380000	0.715836
	28.385000	0.760963
	28.390000	0.715836
	28.395000	0.673933
	28.400000	0.719060
	28.405000	0.757740
	28.410000	0.712613
	28.415000	0.667486
	28.420000	0.715836
	28.425000	0.764187
	28.430000	0.719060
	28.435000	0.667486
	28.440000	0.712613
	28.445000	0.767410
	28.450000	0.715836
	28.455000	0.670709
	28.460000	0.719060
	28.465000	0.760963
	28.470000	0.712613
	28.475000	0.664263
	28.480000	0.722283
	28.485000	0.764187
	28.490000	0.712613
	28.495000	0.673933
	28.500000	0.712613
	28.505000	0.760963
	28.510000	0.719060
	28.515000	0.670709
	28.520000	0.722283
	28.525000	0.757740
	28.530000	0.722283
	28.535000	0.667486
	28.540000	0.722283
	28.545000	0.764187
	28.550000	0.715836
	28.555000	0.677156
	28.560000	0.715836
	28.565000	0.767410
	28.570000	0.719060
	28.575000	0.667486
	28.580000	0.725507
	28.585000	0.764187
	28.590000	0.712613
	28.595000	0.673933
	28.600000	0.719060
	28.605000	0.767410
	28.610000	0.709390
	28.615000	0.673933
	28.620000	0.719060
	28.625000	0.757740
	28.630000	0.712613
	28.635000	0.667486
	28.640000	0.719060
	28.645000	0.764187
	28.650000	0.712613
	28.655000	0.667486
	28.660000	0.722283
	28.665000	0.760963
	28.670000	0.712613
	28.675000	0.664263
	28.680000	0.719060
	28.685000	0.757740
	28.690000	0.706166
	28.695000	0.661039
	28.700000	0.715836
	28.705000	0.754517
	28.710000	0.702943
	28.715000	0.664263
	28.720000	0.715836
	28.725000	0.757740
	28.730000	0.702943
	28.735000	0.657816
	28.740000	0.712613
	28.745000	0.748070
	28.750000	0.702943
	28.755000	0.657816
	28.760000	0.709390
	28.765000	0.748070
	28.770000	0.696496
	28.775000	0.661039
	28.780000	0.709390
	28.785000	0.751293
	28.790000	0.696496
	28.795000	0.654593
	28.800000	0.709390
	28.805000	0.744847
	28.810000	0.702943
	28.815000	0.651369
	28.820000	0.702943
	28.825000	0.751293
	28.830000	0.693273
	28.835000	0.657816
	28.840000	0.702943
	28.845000	0.741623
	28.850000	0.690050
	28.855000	0.651369
	28.860000	0.699720
	28.865000	0.741623
	28.870000	0.690050
	28.875000	0.648146
	28.880000	0.696496
	28.885000	0.744847
	28.890000	0.686826
	28.895000	0.651369
	28.900000	0.699720
	28.905000	0.744847
	28.910000	0.690050
	28.915000	0.651369
	28.920000	0.702943
	28.925000	0.741623
	28.930000	0.686826
	28.935000	0.651369
	28.940000	0.696496
	28.945000	0.741623
	28.950000	0.683603
	28.955000	0.641699
	28.960000	0.696496
	28.965000	0.735177
	28.970000	0.690050
	28.975000	0.644923
	28.980000	0.702943
	28.985000	0.728730
	28.990000	0.690050
	28.995000	0.638476
	29.000000	0.699720
	29.005000	0.735177
	29.010000	0.690050
	29.015000	0.641699
	29.020000	0.699720
	29.025000	0.735177
	29.030000	0.673933
	29.035000	0.638476
	29.040000	0.696496
	29.045000	0.731953
	29.050000	0.677156
	29.055000	0.638476
	29.060000	0.690050
	29.065000	0.731953
	29.070000	0.673933
	29.075000	0.635252
	29.080000	0.686826
	29.085000	0.722283
	29.090000	0.677156
	29.095000	0.635252
	29.100000	0.686826
	29.105000	0.731953
	29.110000	0.673933
	29.115000	0.632029
	29.120000	0.683603
	29.125000	0.725507
	29.130000	0.664263
	29.135000	0.628806
	29.140000	0.683603
	29.145000	0.725507
	29.150000	0.661039
	29.155000	0.632029
	29.160000	0.686826
	29.165000	0.715836
	29.170000	0.664263
	29.175000	0.625582
	29.180000	0.683603
	29.185000	0.722283
	29.190000	0.664263
	29.195000	0.622359
	29.200000	0.683603
	29.205000	0.709390
	29.210000	0.661039
	29.215000	0.619136
	29.220000	0.683603
	29.225000	0.715836
	29.230000	0.664263
	29.235000	0.622359
	29.240000	0.683603
	29.245000	0.715836
	29.250000	0.657816
	29.255000	0.625582
	29.260000	0.673933
	29.265000	0.709390
	29.270000	0.654593
	29.275000	0.625582
	29.280000	0.673933
	29.285000	0.709390
	29.290000	0.657816
	29.295000	0.615912
	29.300000	0.670709
	29.305000	0.709390
	29.310000	0.654593
	29.315000	0.619136
	29.320000	0.673933
	29.325000	0.706166
	29.330000	0.651369
	29.335000	0.609466
	29.340000	0.677156
	29.345000	0.706166
	29.350000	0.651369
	29.355000	0.612689
	29.360000	0.673933
	29.365000	0.709390
	29.370000	0.651369
	29.375000	0.619136
	29.380000	0.673933
	29.385000	0.706166
	29.390000	0.654593
	29.395000	0.615912
	29.400000	0.670709
	29.405000	0.706166
	29.410000	0.644923
	29.415000	0.622359
	29.420000	0.661039
	29.425000	0.709390
	29.430000	0.648146
	29.435000	0.612689
	29.440000	0.673933
	29.445000	0.706166
	29.450000	0.651369
	29.455000	0.615912
	29.460000	0.673933
	29.465000	0.702943
	29.470000	0.651369
	29.475000	0.619136
	29.480000	0.673933
	29.485000	0.706166
	29.490000	0.648146
	29.495000	0.609466
	29.500000	0.670709
	29.505000	0.709390
	29.510000	0.648146
	29.515000	0.619136
	29.520000	0.677156
	29.525000	0.702943
	29.530000	0.651369
	29.535000	0.619136
	29.540000	0.673933
	29.545000	0.712613
	29.550000	0.648146
	29.555000	0.622359
	29.560000	0.677156
	29.565000	0.706166
	29.570000	0.654593
	29.575000	0.619136
	29.580000	0.673933
	29.585000	0.712613
	29.590000	0.654593
	29.595000	0.615912
	29.600000	0.677156
	29.605000	0.706166
	29.610000	0.651369
	29.615000	0.619136
	29.620000	0.677156
	29.625000	0.706166
	29.630000	0.654593
	29.635000	0.615912
	29.640000	0.677156
	29.645000	0.709390
	29.650000	0.654593
	29.655000	0.619136
	29.660000	0.673933
	29.665000	0.712613
	29.670000	0.654593
	29.675000	0.625582
	29.680000	0.683603
	29.685000	0.709390
	29.690000	0.648146
	29.695000	0.622359
	29.700000	0.680379
	29.705000	0.709390
	29.710000	0.644923
	29.715000	0.619136
	29.720000	0.677156
	29.725000	0.709390
	29.730000	0.651369
	29.735000	0.615912
	29.740000	0.670709
	29.745000	0.706166
	29.750000	0.648146
	29.755000	0.615912
	29.760000	0.670709
	29.765000	0.702943
	29.770000	0.641699
	29.775000	0.609466
	29.780000	0.667486
	29.785000	0.690050
	29.790000	0.635252
	29.795000	0.599796
	29.800000	0.651369
	29.805000	0.690050
	29.810000	0.625582
	29.815000	0.593349
	29.820000	0.648146
	29.825000	0.677156
	29.830000	0.612689
	29.835000	0.583679
	29.840000	0.641699
	29.845000	0.670709
	29.850000	0.606242
	29.855000	0.574009
	29.860000	0.632029
	29.865000	0.657816
	29.870000	0.599796
	29.875000	0.561115
	29.880000	0.622359
	29.885000	0.644923
	29.890000	0.580455
	29.895000	0.548222
	29.900000	0.609466
	29.905000	0.638476
	29.910000	0.574009
	29.915000	0.541775
	29.920000	0.603019
	29.925000	0.625582
	29.930000	0.574009
	29.935000	0.541775
	29.940000	0.596572
	29.945000	0.622359
	29.950000	0.561115
	29.955000	0.532105
	29.960000	0.590125
	29.965000	0.615912
	29.970000	0.554668
	29.975000	0.525658
	29.980000	0.586902
	29.985000	0.612689
	29.990000	0.551445
	29.995000	0.522435
	30.000000	0.586902
	30.005000	0.609466
	30.010000	0.548222
	30.015000	0.525658
	30.020000	0.586902
	30.025000	0.606242
	30.030000	0.548222
	30.035000	0.522435
	30.040000	0.590125
	30.045000	0.622359
	30.050000	0.551445
	30.055000	0.532105
	30.060000	0.593349
	30.065000	0.622359
	30.070000	0.567562
	30.075000	0.548222
	30.080000	0.615912
	30.085000	0.644923
	30.090000	0.596572
	30.095000	0.570785
	30.100000	0.635252
	30.105000	0.670709
	30.110000	0.612689
	30.115000	0.596572
	30.120000	0.664263
	30.125000	0.706166
	30.130000	0.648146
	30.135000	0.632029
	30.140000	0.696496
	30.145000	0.735177
	30.150000	0.680379
	30.155000	0.657816
	30.160000	0.735177
	30.165000	0.760963
	30.170000	0.719060
	30.175000	0.699720
	30.180000	0.773857
	30.185000	0.802867
	30.190000	0.738400
	30.195000	0.728730
	30.200000	0.793197
	30.205000	0.831877
	30.210000	0.777080
	30.215000	0.757740
	30.220000	0.825431
	30.225000	0.860888
	30.230000	0.809314
	30.235000	0.796420
	30.240000	0.860888
	30.245000	0.893121
	30.250000	0.838324
	30.255000	0.825431
	30.260000	0.889898
	30.265000	0.922131
	30.270000	0.873781
	30.275000	0.851218
	30.280000	0.915685
	30.285000	0.947918
	30.290000	0.889898
	30.295000	0.877004
	30.300000	0.938248
	30.305000	0.970482
	30.310000	0.906015
	30.315000	0.896345
	30.320000	0.954365
	30.325000	0.980152
	30.330000	0.931801
	30.335000	0.902791
	30.340000	0.967258
	30.345000	0.989822
	30.350000	0.935025
	30.355000	0.909238
	30.360000	0.973705
	30.365000	0.999492
	30.370000	0.935025
	30.375000	0.915685
	30.380000	0.980152
	30.385000	0.996269
	30.390000	0.944695
	30.395000	0.915685
	30.400000	0.976929
	30.405000	1.002715
	30.410000	0.935025
	30.415000	0.915685
	30.420000	0.980152
	30.425000	0.999492
	30.430000	0.941472
	30.435000	0.912461
	30.440000	0.976929
	30.445000	0.996269
	30.450000	0.931801
	30.455000	0.915685
	30.460000	0.970482
	30.465000	0.989822
	30.470000	0.928578
	30.475000	0.909238
	30.480000	0.967258
	30.485000	0.986599
	30.490000	0.922131
	30.495000	0.909238
	30.500000	0.964035
	30.505000	0.986599
	30.510000	0.922131
	30.515000	0.906015
	30.520000	0.964035
	30.525000	0.980152
	30.530000	0.918908
	30.535000	0.906015
	30.540000	0.967258
	30.545000	0.980152
	30.550000	0.922131
	30.555000	0.902791
	30.560000	0.960812
	30.565000	0.980152
	30.570000	0.918908
	30.575000	0.899568
	30.580000	0.957588
	30.585000	0.967258
	30.590000	0.915685
	30.595000	0.896345
	30.600000	0.954365
	30.605000	0.967258
	30.610000	0.906015
	30.615000	0.889898
	30.620000	0.954365
	30.625000	0.960812
	30.630000	0.909238
	30.635000	0.893121
	30.640000	0.944695
	30.645000	0.960812
	30.650000	0.899568
	30.655000	0.880228
	30.660000	0.938248
	30.665000	0.954365
	30.670000	0.896345
	30.675000	0.877004
	30.680000	0.928578
	30.685000	0.947918
	30.690000	0.883451
	30.695000	0.867334
	30.700000	0.918908
	30.705000	0.935025
	30.710000	0.870558
	30.715000	0.844771
	30.720000	0.902791
	30.725000	0.922131
	30.730000	0.854441
	30.735000	0.835101
	30.740000	0.893121
	30.745000	0.906015
	30.750000	0.844771
	30.755000	0.828654
	30.760000	0.883451
	30.765000	0.896345
	30.770000	0.835101
	30.775000	0.822207
	30.780000	0.877004
	30.785000	0.883451
	30.790000	0.828654
	30.795000	0.806090
	30.800000	0.864111
	30.805000	0.880228
	30.810000	0.815761
	30.815000	0.802867
	30.820000	0.854441
	30.825000	0.870558
	30.830000	0.806090
	30.835000	0.789974
	30.840000	0.847994
	30.845000	0.851218
	30.850000	0.796420
	30.855000	0.783527
	30.860000	0.838324
	30.865000	0.844771
	30.870000	0.793197
	30.875000	0.780304
	30.880000	0.838324
	30.885000	0.854441
	30.890000	0.786750
	30.895000	0.783527
	30.900000	0.838324
	30.905000	0.857664
	30.910000	0.806090
	30.915000	0.789974
	30.920000	0.857664
	30.925000	0.877004
	30.930000	0.812537
	30.935000	0.812537
	30.940000	0.877004
	30.945000	0.902791
	30.950000	0.847994
	30.955000	0.838324
	30.960000	0.909238
	30.965000	0.931801
	30.970000	0.883451
	30.975000	0.873781
	30.980000	0.938248
	30.985000	0.964035
	30.990000	0.912461
	30.995000	0.902791
	31.000000	0.960812
	31.005000	0.973705
	31.010000	0.912461
	31.015000	0.896345
	31.020000	0.951142
	31.025000	0.964035
	31.030000	0.899568
	31.035000	0.880228
	31.040000	0.941472
	31.045000	0.947918
	31.050000	0.873781
	31.055000	0.847994
	31.060000	0.902791
	31.065000	0.896345
	31.070000	0.822207
	31.075000	0.802867
	31.080000	0.847994
	31.085000	0.851218
	31.090000	0.770634
	31.095000	0.748070
	31.100000	0.793197
	31.105000	0.789974
	31.110000	0.725507
	31.115000	0.693273
	31.120000	0.751293
	31.125000	0.754517
	31.130000	0.680379
	31.135000	0.667486
	31.140000	0.722283
	31.145000	0.728730
	31.150000	0.670709
	31.155000	0.657816
	31.160000	0.719060
	31.165000	0.722283
	31.170000	0.664263
	31.175000	0.657816
	31.180000	0.719060
	31.185000	0.738400
	31.190000	0.680379
	31.195000	0.677156
	31.200000	0.744847
	31.205000	0.760963
	31.210000	0.702943
	31.215000	0.702943
	31.220000	0.767410
	31.225000	0.786750
	31.230000	0.728730
	31.235000	0.728730
	31.240000	0.802867
	31.245000	0.831877
	31.250000	0.783527
	31.255000	0.786750
	31.260000	0.877004
	31.265000	0.906015
	31.270000	0.860888
	31.275000	0.870558
	31.280000	0.957588
	31.285000	0.983375
	31.290000	0.938248
	31.295000	0.941472
	31.300000	1.015609
	31.305000	1.028502
	31.310000	0.970482
	31.315000	0.973705
	31.320000	1.034949
	31.325000	1.054289
	31.330000	0.986599
	31.335000	0.993045
	31.340000	1.054289
	31.345000	1.060736
	31.350000	1.005939
	31.355000	0.996269
	31.360000	1.051066
	31.365000	1.057512
	31.370000	1.002715
	31.375000	0.989822
	31.380000	1.051066
	31.385000	1.057512
	31.390000	0.996269
	31.395000	0.993045
	31.400000	1.054289
	31.405000	1.063959
	31.410000	0.993045
	31.415000	0.989822
	31.420000	1.047842
	31.425000	1.057512
	31.430000	0.993045
	31.435000	0.986599
	31.440000	1.041396
	31.445000	1.051066
	31.450000	0.986599
	31.455000	0.980152
	31.460000	1.041396
	31.465000	1.051066
	31.470000	0.983375
	31.475000	0.973705
	31.480000	1.034949
	31.485000	1.041396
	31.490000	0.980152
	31.495000	0.964035
	31.500000	1.031726
	31.505000	1.031726
	31.510000	0.967258
	31.515000	0.967258
	31.520000	1.022056
	31.525000	1.031726
	31.530000	0.964035
	31.535000	0.964035
	31.540000	1.018832
	31.545000	1.025279
	31.550000	0.964035
	31.555000	0.960812
	31.560000	1.018832
	31.565000	1.015609
	31.570000	0.960812
	31.575000	0.951142
	31.580000	1.012385
	31.585000	1.018832
	31.590000	0.947918
	31.595000	0.951142
	31.600000	0.999492
	31.605000	1.002715
	31.610000	0.944695
	31.615000	0.944695
	31.620000	0.999492
	31.625000	0.999492
	31.630000	0.938248
	31.635000	0.931801
	31.640000	0.989822
	31.645000	0.993045
	31.650000	0.925355
	31.655000	0.915685
	31.660000	0.976929
	31.665000	0.973705
	31.670000	0.902791
	31.675000	0.899568
	31.680000	0.964035
	31.685000	0.960812
	31.690000	0.889898
	31.695000	0.883451
	31.700000	0.947918
	31.705000	0.941472
	31.710000	0.870558
	31.715000	0.870558
	31.720000	0.925355
	31.725000	0.922131
	31.730000	0.851218
	31.735000	0.851218
	31.740000	0.909238
	31.745000	0.906015
	31.750000	0.841547
	31.755000	0.838324
	31.760000	0.889898
	31.765000	0.893121
	31.770000	0.825431
	31.775000	0.815761
	31.780000	0.877004
	31.785000	0.870558
	31.790000	0.806090
	31.795000	0.806090
	31.800000	0.851218
	31.805000	0.851218
	31.810000	0.786750
	31.815000	0.783527
	31.820000	0.825431
	31.825000	0.825431
	31.830000	0.757740
	31.835000	0.754517
	31.840000	0.809314
	31.845000	0.806090
	31.850000	0.744847
	31.855000	0.735177
	31.860000	0.799644
	31.865000	0.796420
	31.870000	0.731953
	31.875000	0.722283
	31.880000	0.783527
	31.885000	0.773857
	31.890000	0.709390
	31.895000	0.709390
	31.900000	0.767410
	31.905000	0.767410
	31.910000	0.693273
	31.915000	0.690050
	31.920000	0.754517
	31.925000	0.744847
	31.930000	0.680379
	31.935000	0.680379
	31.940000	0.735177
	31.945000	0.741623
	31.950000	0.677156
	31.955000	0.670709
	31.960000	0.731953
	31.965000	0.722283
	31.970000	0.657816
	31.975000	0.657816
	31.980000	0.719060
	31.985000	0.715836
	31.990000	0.654593
	31.995000	0.654593
	32.000000	0.709390
	32.005000	0.706166
	32.010000	0.635252
	32.015000	0.641699
	32.020000	0.702943
	32.025000	0.706166
	32.030000	0.638476
	32.035000	0.641699
	32.040000	0.699720
	32.045000	0.693273
	32.050000	0.635252
	32.055000	0.641699
	32.060000	0.693273
	32.065000	0.693273
	32.070000	0.628806
	32.075000	0.635252
	32.080000	0.690050
	32.085000	0.693273
	32.090000	0.628806
	32.095000	0.635252
	32.100000	0.690050
	32.105000	0.693273
	32.110000	0.625582
	32.115000	0.628806
	32.120000	0.686826
	32.125000	0.690050
	32.130000	0.622359
	32.135000	0.628806
	32.140000	0.683603
	32.145000	0.686826
	32.150000	0.619136
	32.155000	0.625582
	32.160000	0.680379
	32.165000	0.683603
	32.170000	0.612689
	32.175000	0.622359
	32.180000	0.683603
	32.185000	0.673933
	32.190000	0.612689
	32.195000	0.612689
	32.200000	0.673933
	32.205000	0.673933
	32.210000	0.612689
	32.215000	0.615912
	32.220000	0.680379
	32.225000	0.673933
	32.230000	0.596572
	32.235000	0.609466
	32.240000	0.667486
	32.245000	0.657816
	32.250000	0.593349
	32.255000	0.599796
	32.260000	0.661039
	32.265000	0.654593
	32.270000	0.590125
	32.275000	0.599796
	32.280000	0.657816
	32.285000	0.648146
	32.290000	0.583679
	32.295000	0.590125
	32.300000	0.644923
	32.305000	0.638476
	32.310000	0.574009
	32.315000	0.574009
	32.320000	0.638476
	32.325000	0.632029
	32.330000	0.564339
	32.335000	0.564339
	32.340000	0.628806
	32.345000	0.615912
	32.350000	0.548222
	32.355000	0.551445
	32.360000	0.612689
	32.365000	0.603019
	32.370000	0.532105
	32.375000	0.538552
	32.380000	0.603019
	32.385000	0.583679
	32.390000	0.522435
	32.395000	0.519212
	32.400000	0.583679
	32.405000	0.574009
	32.410000	0.506318
	32.415000	0.512765
	32.420000	0.567562
	32.425000	0.557892
	32.430000	0.493425
	32.435000	0.509541
	32.440000	0.554668
	32.445000	0.551445
	32.450000	0.480531
	32.455000	0.486978
	32.460000	0.548222
	32.465000	0.535328
	32.470000	0.470861
	32.475000	0.477308
	32.480000	0.538552
	32.485000	0.522435
	32.490000	0.457968
	32.495000	0.464414
	32.500000	0.522435
	32.505000	0.512765
	32.510000	0.451521
	32.515000	0.457968
	32.520000	0.512765
	32.525000	0.503095
	32.530000	0.435404
	32.535000	0.445074
	32.540000	0.503095
	32.545000	0.490201
	32.550000	0.425734
	32.555000	0.428957
	32.560000	0.493425
	32.565000	0.483755
	32.570000	0.419287
	32.575000	0.422511
	32.580000	0.496648
	32.585000	0.483755
	32.590000	0.412841
	32.595000	0.425734
	32.600000	0.483755
	32.605000	0.474085
	32.610000	0.406394
	32.615000	0.412841
	32.620000	0.480531
	32.625000	0.464414
	32.630000	0.396724
	32.635000	0.412841
	32.640000	0.470861
	32.645000	0.464414
	32.650000	0.403171
	32.655000	0.406394
	32.660000	0.467638
	32.665000	0.454744
	32.670000	0.396724
	32.675000	0.406394
	32.680000	0.474085
	32.685000	0.454744
	32.690000	0.393501
	32.695000	0.406394
	32.700000	0.467638
	32.705000	0.457968
	32.710000	0.393501
	32.715000	0.406394
	32.720000	0.464414
	32.725000	0.448298
	32.730000	0.390277
	32.735000	0.406394
	32.740000	0.470861
	32.745000	0.457968
	32.750000	0.390277
	32.755000	0.396724
	32.760000	0.470861
	32.765000	0.457968
	32.770000	0.393501
	32.775000	0.403171
	32.780000	0.470861
	32.785000	0.451521
	32.790000	0.390277
	32.795000	0.406394
	32.800000	0.464414
	32.805000	0.464414
	32.810000	0.390277
	32.815000	0.403171
	32.820000	0.470861
	32.825000	0.457968
	32.830000	0.390277
	32.835000	0.403171
	32.840000	0.474085
	32.845000	0.464414
	32.850000	0.393501
	32.855000	0.409617
	32.860000	0.474085
	32.865000	0.464414
	32.870000	0.399947
	32.875000	0.416064
	32.880000	0.480531
	32.885000	0.467638
	32.890000	0.396724
	32.895000	0.412841
	32.900000	0.477308
	32.905000	0.467638
	32.910000	0.399947
	32.915000	0.416064
	32.920000	0.477308
	32.925000	0.470861
	32.930000	0.399947
	32.935000	0.419287
	32.940000	0.483755
	32.945000	0.467638
	32.950000	0.406394
	32.955000	0.419287
	32.960000	0.486978
	32.965000	0.470861
	32.970000	0.406394
	32.975000	0.422511
	32.980000	0.490201
	32.985000	0.470861
	32.990000	0.406394
	32.995000	0.425734
	33.000000	0.486978
	33.005000	0.477308
	33.010000	0.406394
	33.015000	0.425734
	33.020000	0.486978
	33.025000	0.470861
	33.030000	0.412841
	33.035000	0.428957
	33.040000	0.490201
	33.045000	0.470861
	33.050000	0.409617
	33.055000	0.428957
	33.060000	0.486978
	33.065000	0.470861
	33.070000	0.409617
	33.075000	0.428957
	33.080000	0.493425
	33.085000	0.470861
	33.090000	0.412841
	33.095000	0.432181
	33.100000	0.493425
	33.105000	0.470861
	33.110000	0.412841
	33.115000	0.428957
	33.120000	0.486978
	33.125000	0.480531
	33.130000	0.406394
	33.135000	0.428957
	33.140000	0.496648
	33.145000	0.470861
	33.150000	0.406394
	33.155000	0.428957
	33.160000	0.493425
	33.165000	0.470861
	33.170000	0.409617
	33.175000	0.428957
	33.180000	0.490201
	33.185000	0.474085
	33.190000	0.399947
	33.195000	0.425734
	33.200000	0.490201
	33.205000	0.470861
	33.210000	0.406394
	33.215000	0.432181
	33.220000	0.493425
	33.225000	0.474085
	33.230000	0.406394
	33.235000	0.425734
	33.240000	0.490201
	33.245000	0.467638
	33.250000	0.403171
	33.255000	0.428957
	33.260000	0.490201
	33.265000	0.461191
	33.270000	0.406394
	33.275000	0.428957
	33.280000	0.490201
	33.285000	0.467638
	33.290000	0.403171
	33.295000	0.428957
	33.300000	0.486978
	33.305000	0.467638
	33.310000	0.399947
	33.315000	0.428957
	33.320000	0.490201
	33.325000	0.470861
	33.330000	0.409617
	33.335000	0.422511
	33.340000	0.490201
	33.345000	0.467638
	33.350000	0.406394
	33.355000	0.432181
	33.360000	0.486978
	33.365000	0.470861
	33.370000	0.409617
	33.375000	0.428957
	33.380000	0.493425
	33.385000	0.470861
	33.390000	0.403171
	33.395000	0.432181
	33.400000	0.496648
	33.405000	0.470861
	33.410000	0.406394
	33.415000	0.435404
	33.420000	0.496648
	33.425000	0.474085
	33.430000	0.406394
	33.435000	0.435404
	33.440000	0.493425
	33.445000	0.470861
	33.450000	0.406394
	33.455000	0.428957
	33.460000	0.493425
	33.465000	0.470861
	33.470000	0.406394
	33.475000	0.432181
	33.480000	0.496648
	33.485000	0.474085
	33.490000	0.409617
	33.495000	0.432181
	33.500000	0.490201
	33.505000	0.474085
	33.510000	0.406394
	33.515000	0.428957
	33.520000	0.496648
	33.525000	0.470861
	33.530000	0.409617
	33.535000	0.435404
	33.540000	0.496648
	33.545000	0.470861
	33.550000	0.412841
	33.555000	0.438628
	33.560000	0.499871
	33.565000	0.467638
	33.570000	0.409617
	33.575000	0.441851
	33.580000	0.503095
	33.585000	0.480531
	33.590000	0.416064
	33.595000	0.438628
	33.600000	0.503095
	33.605000	0.474085
	33.610000	0.412841
	33.615000	0.445074
	33.620000	0.496648
	33.625000	0.477308
	33.630000	0.412841
	33.635000	0.445074
	33.640000	0.499871
	33.645000	0.470861
	33.650000	0.416064
	33.655000	0.445074
	33.660000	0.499871
	33.665000	0.483755
	33.670000	0.419287
	33.675000	0.445074
	33.680000	0.499871
	33.685000	0.477308
	33.690000	0.419287
	33.695000	0.438628
	33.700000	0.499871
	33.705000	0.474085
	33.710000	0.412841
	33.715000	0.441851
	33.720000	0.503095
	33.725000	0.477308
	33.730000	0.416064
	33.735000	0.441851
	33.740000	0.503095
	33.745000	0.474085
	33.750000	0.419287
	33.755000	0.445074
	33.760000	0.503095
	33.765000	0.477308
	33.770000	0.412841
	33.775000	0.448298
	33.780000	0.506318
	33.785000	0.477308
	33.790000	0.419287
	33.795000	0.445074
	33.800000	0.509541
	33.805000	0.480531
	33.810000	0.422511
	33.815000	0.451521
	33.820000	0.503095
	33.825000	0.483755
	33.830000	0.419287
	33.835000	0.448298
	33.840000	0.509541
	33.845000	0.480531
	33.850000	0.422511
	33.855000	0.451521
	33.860000	0.515988
	33.865000	0.483755
	33.870000	0.425734
	33.875000	0.451521
	33.880000	0.512765
	33.885000	0.480531
	33.890000	0.422511
	33.895000	0.457968
	33.900000	0.515988
	33.905000	0.490201
	33.910000	0.425734
	33.915000	0.451521
	33.920000	0.515988
	33.925000	0.486978
	33.930000	0.422511
	33.935000	0.457968
	33.940000	0.512765
	33.945000	0.483755
	33.950000	0.422511
	33.955000	0.461191
	33.960000	0.512765
	33.965000	0.486978
	33.970000	0.422511
	33.975000	0.457968
	33.980000	0.515988
	33.985000	0.486978
	33.990000	0.425734
	33.995000	0.461191
	34.000000	0.515988
	34.005000	0.483755
	34.010000	0.428957
	34.015000	0.451521
	34.020000	0.515988
	34.025000	0.486978
	34.030000	0.425734
	34.035000	0.457968
	34.040000	0.515988
	34.045000	0.486978
	34.050000	0.422511
	34.055000	0.454744
	34.060000	0.512765
	34.065000	0.486978
	34.070000	0.428957
	34.075000	0.457968
	34.080000	0.509541
	34.085000	0.480531
	34.090000	0.425734
	34.095000	0.457968
	34.100000	0.519212
	34.105000	0.486978
	34.110000	0.422511
	34.115000	0.451521
	34.120000	0.509541
	34.125000	0.480531
	34.130000	0.422511
	34.135000	0.461191
	34.140000	0.512765
	34.145000	0.480531
	34.150000	0.422511
	34.155000	0.457968
	34.160000	0.512765
	34.165000	0.483755
	34.170000	0.422511
	34.175000	0.461191
	34.180000	0.512765
	34.185000	0.477308
	34.190000	0.422511
	34.195000	0.457968
	34.200000	0.512765
	34.205000	0.480531
	34.210000	0.416064
	34.215000	0.454744
	34.220000	0.509541
	34.225000	0.477308
	34.230000	0.425734
	34.235000	0.451521
	34.240000	0.509541
	34.245000	0.477308
	34.250000	0.416064
	34.255000	0.457968
	34.260000	0.509541
	34.265000	0.474085
	34.270000	0.422511
	34.275000	0.451521
	34.280000	0.509541
	34.285000	0.477308
	34.290000	0.412841
	34.295000	0.451521
	34.300000	0.509541
	34.305000	0.470861
	34.310000	0.409617
	34.315000	0.451521
	34.320000	0.506318
	34.325000	0.474085
	34.330000	0.412841
	34.335000	0.451521
	34.340000	0.509541
	34.345000	0.467638
	34.350000	0.409617
	34.355000	0.451521
	34.360000	0.503095
	34.365000	0.470861
	34.370000	0.412841
	34.375000	0.445074
	34.380000	0.503095
	34.385000	0.467638
	34.390000	0.412841
	34.395000	0.448298
	34.400000	0.503095
	34.405000	0.464414
	34.410000	0.409617
	34.415000	0.451521
	34.420000	0.503095
	34.425000	0.470861
	34.430000	0.416064
	34.435000	0.445074
	34.440000	0.503095
	34.445000	0.470861
	34.450000	0.416064
	34.455000	0.454744
	34.460000	0.503095
	34.465000	0.457968
	34.470000	0.416064
	34.475000	0.451521
	34.480000	0.509541
	34.485000	0.464414
	34.490000	0.406394
	34.495000	0.451521
	34.500000	0.499871
	34.505000	0.470861
	34.510000	0.409617
	34.515000	0.445074
	34.520000	0.503095
	34.525000	0.470861
	34.530000	0.416064
	34.535000	0.451521
	34.540000	0.503095
	34.545000	0.464414
	34.550000	0.409617
	34.555000	0.448298
	34.560000	0.499871
	34.565000	0.464414
	34.570000	0.412841
	34.575000	0.451521
	34.580000	0.503095
	34.585000	0.464414
	34.590000	0.412841
	34.595000	0.451521
	34.600000	0.506318
	34.605000	0.470861
	34.610000	0.416064
	34.615000	0.451521
	34.620000	0.506318
	34.625000	0.474085
	34.630000	0.412841
	34.635000	0.461191
	34.640000	0.515988
	34.645000	0.464414
	34.650000	0.419287
	34.655000	0.454744
	34.660000	0.509541
	34.665000	0.470861
	34.670000	0.419287
	34.675000	0.464414
	34.680000	0.512765
	34.685000	0.470861
	34.690000	0.422511
	34.695000	0.464414
	34.700000	0.512765
	34.705000	0.474085
	34.710000	0.425734
	34.715000	0.461191
	34.720000	0.515988
	34.725000	0.477308
	34.730000	0.425734
	34.735000	0.470861
	34.740000	0.515988
	34.745000	0.480531
	34.750000	0.428957
	34.755000	0.467638
	34.760000	0.515988
	34.765000	0.477308
	34.770000	0.422511
	34.775000	0.464414
	34.780000	0.522435
	34.785000	0.480531
	34.790000	0.422511
	34.795000	0.467638
	34.800000	0.519212
	34.805000	0.477308
	34.810000	0.425734
	34.815000	0.464414
	34.820000	0.519212
	34.825000	0.480531
	34.830000	0.422511
	34.835000	0.461191
	34.840000	0.522435
	34.845000	0.474085
	34.850000	0.428957
	34.855000	0.461191
	34.860000	0.515988
	34.865000	0.470861
	34.870000	0.422511
	34.875000	0.461191
	34.880000	0.515988
	34.885000	0.477308
	34.890000	0.419287
	34.895000	0.464414
	34.900000	0.512765
	34.905000	0.470861
	34.910000	0.416064
	34.915000	0.461191
	34.920000	0.509541
	34.925000	0.470861
	34.930000	0.412841
	34.935000	0.461191
	34.940000	0.512765
	34.945000	0.464414
	34.950000	0.416064
	34.955000	0.454744
	34.960000	0.509541
	34.965000	0.467638
	34.970000	0.416064
	34.975000	0.454744
	34.980000	0.499871
	34.985000	0.464414
	34.990000	0.409617
	34.995000	0.454744
	35.000000	0.506318
	35.005000	0.464414
	35.010000	0.416064
	35.015000	0.457968
	35.020000	0.499871
	35.025000	0.461191
	35.030000	0.409617
	35.035000	0.451521
	35.040000	0.499871
	35.045000	0.457968
	35.050000	0.412841
	35.055000	0.451521
	35.060000	0.506318
	35.065000	0.461191
	35.070000	0.409617
	35.075000	0.457968
	35.080000	0.499871
	35.085000	0.457968
	35.090000	0.406394
	35.095000	0.451521
	35.100000	0.496648
	35.105000	0.451521
	35.110000	0.406394
	35.115000	0.451521
	35.120000	0.496648
	35.125000	0.454744
	35.130000	0.403171
	35.135000	0.448298
	35.140000	0.496648
	35.145000	0.454744
	35.150000	0.406394
	35.155000	0.448298
	35.160000	0.496648
	35.165000	0.451521
	35.170000	0.406394
	35.175000	0.454744
	35.180000	0.496648
	35.185000	0.451521
	35.190000	0.403171
	35.195000	0.448298
	35.200000	0.496648
	35.205000	0.448298
	35.210000	0.399947
	35.215000	0.441851
	35.220000	0.493425
	35.225000	0.451521
	35.230000	0.403171
	35.235000	0.445074
	35.240000	0.496648
	35.245000	0.441851
	35.250000	0.393501
	35.255000	0.445074
	35.260000	0.496648
	35.265000	0.451521
	35.270000	0.399947
	35.275000	0.448298
	35.280000	0.493425
	35.285000	0.448298
	35.290000	0.406394
	35.295000	0.441851
	35.300000	0.496648
	35.305000	0.454744
	35.310000	0.406394
	35.315000	0.451521
	35.320000	0.496648
	35.325000	0.441851
	35.330000	0.406394
	35.335000	0.448298
	35.340000	0.499871
	35.345000	0.448298
	35.350000	0.399947
	35.355000	0.454744
	35.360000	0.493425
	35.365000	0.448298
	35.370000	0.403171
	35.375000	0.454744
	35.380000	0.496648
	35.385000	0.448298
	35.390000	0.399947
	35.395000	0.454744
	35.400000	0.499871
	35.405000	0.454744
	35.410000	0.406394
	35.415000	0.454744
	35.420000	0.503095
	35.425000	0.454744
	35.430000	0.403171
	35.435000	0.457968
	35.440000	0.496648
	35.445000	0.451521
	35.450000	0.403171
	35.455000	0.448298
	35.460000	0.496648
	35.465000	0.451521
	35.470000	0.406394
	35.475000	0.457968
	35.480000	0.499871
	35.485000	0.451521
	35.490000	0.403171
	35.495000	0.451521
	35.500000	0.496648
	35.505000	0.454744
	35.510000	0.406394
	35.515000	0.461191
	35.520000	0.499871
	35.525000	0.454744
	35.530000	0.412841
	35.535000	0.461191
	35.540000	0.499871
	35.545000	0.454744
	35.550000	0.412841
	35.555000	0.457968
	35.560000	0.503095
	35.565000	0.454744
	35.570000	0.412841
	35.575000	0.461191
	35.580000	0.503095
	35.585000	0.461191
	35.590000	0.406394
	35.595000	0.464414
	35.600000	0.503095
	35.605000	0.457968
	35.610000	0.409617
	35.615000	0.461191
	35.620000	0.503095
	35.625000	0.464414
	35.630000	0.409617
	35.635000	0.457968
	35.640000	0.496648
	35.645000	0.454744
	35.650000	0.406394
	35.655000	0.461191
	35.660000	0.509541
	35.665000	0.451521
	35.670000	0.412841
	35.675000	0.448298
	35.680000	0.499871
	35.685000	0.454744
	35.690000	0.406394
	35.695000	0.464414
	35.700000	0.496648
	35.705000	0.451521
	35.710000	0.412841
	35.715000	0.457968
	35.720000	0.499871
	35.725000	0.448298
	35.730000	0.406394
	35.735000	0.461191
	35.740000	0.503095
	35.745000	0.448298
	35.750000	0.406394
	35.755000	0.457968
	35.760000	0.503095
	35.765000	0.441851
	35.770000	0.406394
	35.775000	0.454744
	35.780000	0.490201
	35.785000	0.438628
	35.790000	0.403171
	35.795000	0.448298
	35.800000	0.493425
	35.805000	0.445074
	35.810000	0.399947
	35.815000	0.448298
	35.820000	0.490201
	35.825000	0.441851
	35.830000	0.393501
	35.835000	0.441851
	35.840000	0.486978
	35.845000	0.432181
	35.850000	0.393501
	35.855000	0.445074
	35.860000	0.490201
	35.865000	0.432181
	35.870000	0.390277
	35.875000	0.445074
	35.880000	0.483755
	35.885000	0.432181
	35.890000	0.390277
	35.895000	0.445074
	35.900000	0.477308
	35.905000	0.432181
	35.910000	0.383830
	35.915000	0.438628
	35.920000	0.477308
	35.925000	0.428957
	35.930000	0.390277
	35.935000	0.438628
	35.940000	0.480531
	35.945000	0.425734
	35.950000	0.383830
	35.955000	0.435404
	35.960000	0.477308
	35.965000	0.428957
	35.970000	0.387054
	35.975000	0.432181
	35.980000	0.480531
	35.985000	0.428957
	35.990000	0.383830
	35.995000	0.432181
	36.000000	0.477308
	36.005000	0.425734
	36.010000	0.377384
	36.015000	0.438628
	36.020000	0.477308
	36.025000	0.419287
	36.030000	0.387054
	36.035000	0.435404
	36.040000	0.474085
	36.045000	0.422511
	36.050000	0.387054
	36.055000	0.438628
	36.060000	0.474085
	36.065000	0.422511
	36.070000	0.377384
	36.075000	0.438628
	36.080000	0.477308
	36.085000	0.419287
	36.090000	0.383830
	36.095000	0.438628
	36.100000	0.477308
	36.105000	0.422511
	36.110000	0.383830
	36.115000	0.448298
	36.120000	0.486978
	36.125000	0.428957
	36.130000	0.396724
	36.135000	0.448298
	36.140000	0.486978
	36.145000	0.432181
	36.150000	0.396724
	36.155000	0.448298
	36.160000	0.490201
	36.165000	0.441851
	36.170000	0.399947
	36.175000	0.454744
	36.180000	0.496648
	36.185000	0.445074
	36.190000	0.403171
	36.195000	0.461191
	36.200000	0.496648
	36.205000	0.441851
	36.210000	0.409617
	36.215000	0.464414
	36.220000	0.493425
	36.225000	0.441851
	36.230000	0.409617
	36.235000	0.457968
	36.240000	0.496648
	36.245000	0.448298
	36.250000	0.409617
	36.255000	0.461191
	36.260000	0.496648
	36.265000	0.438628
	36.270000	0.409617
	36.275000	0.457968
	36.280000	0.499871
	36.285000	0.441851
	36.290000	0.406394
	36.295000	0.457968
	36.300000	0.490201
	36.305000	0.448298
	36.310000	0.403171
	36.315000	0.454744
	36.320000	0.496648
	36.325000	0.441851
	36.330000	0.403171
	36.335000	0.464414
	36.340000	0.493425
	36.345000	0.438628
	36.350000	0.403171
	36.355000	0.464414
	36.360000	0.493425
	36.365000	0.438628
	36.370000	0.403171
	36.375000	0.454744
	36.380000	0.493425
	36.385000	0.438628
	36.390000	0.399947
	36.395000	0.454744
	36.400000	0.490201
	36.405000	0.435404
	36.410000	0.399947
	36.415000	0.451521
	36.420000	0.486978
	36.425000	0.428957
	36.430000	0.396724
	36.435000	0.451521
	36.440000	0.486978
	36.445000	0.428957
	36.450000	0.393501
	36.455000	0.454744
	36.460000	0.486978
	36.465000	0.425734
	36.470000	0.399947
	36.475000	0.448298
	36.480000	0.483755
	36.485000	0.425734
	36.490000	0.390277
	36.495000	0.451521
	36.500000	0.483755
	36.505000	0.425734
	36.510000	0.383830
	36.515000	0.445074
	36.520000	0.477308
	36.525000	0.425734
	36.530000	0.390277
	36.535000	0.441851
	36.540000	0.480531
	36.545000	0.425734
	36.550000	0.390277
	36.555000	0.438628
	36.560000	0.474085
	36.565000	0.419287
	36.570000	0.383830
	36.575000	0.441851
	36.580000	0.477308
	36.585000	0.416064
	36.590000	0.374160
	36.595000	0.432181
	36.600000	0.470861
	36.605000	0.412841
	36.610000	0.377384
	36.615000	0.435404
	36.620000	0.467638
	36.625000	0.412841
	36.630000	0.374160
	36.635000	0.432181
	36.640000	0.464414
	36.645000	0.409617
	36.650000	0.374160
	36.655000	0.432181
	36.660000	0.464414
	36.665000	0.406394
	36.670000	0.374160
	36.675000	0.428957
	36.680000	0.457968
	36.685000	0.396724
	36.690000	0.374160
	36.695000	0.425734
	36.700000	0.457968
	36.705000	0.399947
	36.710000	0.374160
	36.715000	0.428957
	36.720000	0.454744
	36.725000	0.396724
	36.730000	0.367714
	36.735000	0.419287
	36.740000	0.454744
	36.745000	0.399947
	36.750000	0.370937
	36.755000	0.422511
	36.760000	0.454744
	36.765000	0.393501
	36.770000	0.361267
	36.775000	0.419287
	36.780000	0.457968
	36.785000	0.393501
	36.790000	0.364490
	36.795000	0.416064
	36.800000	0.448298
	36.805000	0.393501
	36.810000	0.361267
	36.815000	0.412841
	36.820000	0.448298
	36.825000	0.390277
	36.830000	0.361267
	36.835000	0.416064
	36.840000	0.451521
	36.845000	0.383830
	36.850000	0.354820
	36.855000	0.419287
	36.860000	0.451521
	36.865000	0.383830
	36.870000	0.358044
	36.875000	0.425734
	36.880000	0.441851
	36.885000	0.383830
	36.890000	0.358044
	36.895000	0.416064
	36.900000	0.451521
	36.905000	0.380607
	36.910000	0.348374
	36.915000	0.412841
	36.920000	0.451521
	36.925000	0.387054
	36.930000	0.358044
	36.935000	0.416064
	36.940000	0.445074
	36.945000	0.387054
	36.950000	0.361267
	36.955000	0.419287
	36.960000	0.445074
	36.965000	0.390277
	36.970000	0.358044
	36.975000	0.416064
	36.980000	0.445074
	36.985000	0.387054
	36.990000	0.354820
	36.995000	0.416064
	37.000000	0.441851
	37.005000	0.387054
	37.010000	0.354820
	37.015000	0.409617
	37.020000	0.448298
	37.025000	0.380607
	37.030000	0.358044
	37.035000	0.419287
	37.040000	0.445074
	37.045000	0.380607
	37.050000	0.351597
	37.055000	0.416064
	37.060000	0.441851
	37.065000	0.380607
	37.070000	0.354820
	37.075000	0.412841
	37.080000	0.441851
	37.085000	0.387054
	37.090000	0.358044
	37.095000	0.416064
	37.100000	0.438628
	37.105000	0.380607
	37.110000	0.358044
	37.115000	0.412841
	37.120000	0.441851
	37.125000	0.377384
	37.130000	0.351597
	37.135000	0.412841
	37.140000	0.435404
	37.145000	0.380607
	37.150000	0.351597
	37.155000	0.409617
	37.160000	0.438628
	37.165000	0.374160
	37.170000	0.348374
	37.175000	0.412841
	37.180000	0.438628
	37.185000	0.380607
	37.190000	0.348374
	37.195000	0.412841
	37.200000	0.438628
	37.205000	0.367714
	37.210000	0.348374
	37.215000	0.403171
	37.220000	0.425734
	37.225000	0.370937
	37.230000	0.341927
	37.235000	0.403171
	37.240000	0.432181
	37.245000	0.370937
	37.250000	0.351597
	37.255000	0.409617
	37.260000	0.428957
	37.265000	0.370937
	37.270000	0.345150
	37.275000	0.403171
	37.280000	0.432181
	37.285000	0.370937
	37.290000	0.338703
	37.295000	0.403171
	37.300000	0.425734
	37.305000	0.361267
