2024/7/20 	 21:20:26 
 This file comes from Vt only measurement 	 1.000000E-1 
 Voltage Sensitivity 	 0.000000E+0 
 Sampling rate 	 200 
 Number of samples per channel 	 -1 
 No filter from Labview 	 	 	 
 	 
 ***End_of_Header*** 
 	 Time 	  Voltage 	 Filtered Voltage 	 
	0.000000	0.274525
	0.005000	0.396208
	0.010000	0.455405
	0.015000	0.337011
	0.020000	0.274525
	0.025000	0.396208
	0.030000	0.455405
	0.035000	0.333722
	0.040000	0.277814
	0.045000	0.392919
	0.050000	0.455405
	0.055000	0.337011
	0.060000	0.274525
	0.065000	0.392919
	0.070000	0.458694
	0.075000	0.337011
	0.080000	0.274525
	0.085000	0.392919
	0.090000	0.455405
	0.095000	0.340299
	0.100000	0.274525
	0.105000	0.392919
	0.110000	0.452116
	0.115000	0.333722
	0.120000	0.274525
	0.125000	0.392919
	0.130000	0.458694
	0.135000	0.337011
	0.140000	0.277814
	0.145000	0.392919
	0.150000	0.458694
	0.155000	0.333722
	0.160000	0.281102
	0.165000	0.396208
	0.170000	0.448827
	0.175000	0.333722
	0.180000	0.277814
	0.185000	0.389630
	0.190000	0.452116
	0.195000	0.333722
	0.200000	0.274525
	0.205000	0.392919
	0.210000	0.458694
	0.215000	0.333722
	0.220000	0.274525
	0.225000	0.392919
	0.230000	0.455405
	0.235000	0.337011
	0.240000	0.271236
	0.245000	0.392919
	0.250000	0.455405
	0.255000	0.337011
	0.260000	0.274525
	0.265000	0.392919
	0.270000	0.452116
	0.275000	0.333722
	0.280000	0.277814
	0.285000	0.392919
	0.290000	0.452116
	0.295000	0.337011
	0.300000	0.271236
	0.305000	0.399496
	0.310000	0.448827
	0.315000	0.333722
	0.320000	0.274525
	0.325000	0.389630
	0.330000	0.452116
	0.335000	0.337011
	0.340000	0.274525
	0.345000	0.392919
	0.350000	0.452116
	0.355000	0.333722
	0.360000	0.274525
	0.365000	0.389630
	0.370000	0.448827
	0.375000	0.333722
	0.380000	0.274525
	0.385000	0.389630
	0.390000	0.452116
	0.395000	0.337011
	0.400000	0.271236
	0.405000	0.392919
	0.410000	0.452116
	0.415000	0.333722
	0.420000	0.271236
	0.425000	0.389630
	0.430000	0.448827
	0.435000	0.333722
	0.440000	0.274525
	0.445000	0.396208
	0.450000	0.448827
	0.455000	0.333722
	0.460000	0.274525
	0.465000	0.389630
	0.470000	0.452116
	0.475000	0.333722
	0.480000	0.274525
	0.485000	0.396208
	0.490000	0.455405
	0.495000	0.333722
	0.500000	0.274525
	0.505000	0.396208
	0.510000	0.455405
	0.515000	0.330433
	0.520000	0.271236
	0.525000	0.392919
	0.530000	0.448827
	0.535000	0.333722
	0.540000	0.274525
	0.545000	0.392919
	0.550000	0.458694
	0.555000	0.333722
	0.560000	0.271236
	0.565000	0.386342
	0.570000	0.452116
	0.575000	0.333722
	0.580000	0.274525
	0.585000	0.392919
	0.590000	0.452116
	0.595000	0.333722
	0.600000	0.271236
	0.605000	0.392919
	0.610000	0.448827
	0.615000	0.330433
	0.620000	0.274525
	0.625000	0.389630
	0.630000	0.452116
	0.635000	0.333722
	0.640000	0.271236
	0.645000	0.389630
	0.650000	0.455405
	0.655000	0.327145
	0.660000	0.274525
	0.665000	0.389630
	0.670000	0.452116
	0.675000	0.330433
	0.680000	0.267948
	0.685000	0.386342
	0.690000	0.455405
	0.695000	0.333722
	0.700000	0.274525
	0.705000	0.392919
	0.710000	0.452116
	0.715000	0.330433
	0.720000	0.271236
	0.725000	0.386342
	0.730000	0.448827
	0.735000	0.330433
	0.740000	0.267948
	0.745000	0.386342
	0.750000	0.448827
	0.755000	0.330433
	0.760000	0.271236
	0.765000	0.389630
	0.770000	0.455405
	0.775000	0.333722
	0.780000	0.271236
	0.785000	0.386342
	0.790000	0.448827
	0.795000	0.330433
	0.800000	0.267948
	0.805000	0.389630
	0.810000	0.448827
	0.815000	0.330433
	0.820000	0.267948
	0.825000	0.389630
	0.830000	0.452116
	0.835000	0.333722
	0.840000	0.267948
	0.845000	0.389630
	0.850000	0.445539
	0.855000	0.330433
	0.860000	0.267948
	0.865000	0.389630
	0.870000	0.448827
	0.875000	0.330433
	0.880000	0.274525
	0.885000	0.389630
	0.890000	0.448827
	0.895000	0.333722
	0.900000	0.267948
	0.905000	0.389630
	0.910000	0.448827
	0.915000	0.327145
	0.920000	0.271236
	0.925000	0.389630
	0.930000	0.455405
	0.935000	0.327145
	0.940000	0.271236
	0.945000	0.389630
	0.950000	0.448827
	0.955000	0.327145
	0.960000	0.274525
	0.965000	0.389630
	0.970000	0.448827
	0.975000	0.327145
	0.980000	0.271236
	0.985000	0.392919
	0.990000	0.452116
	0.995000	0.327145
	1.000000	0.271236
	1.005000	0.392919
	1.010000	0.452116
	1.015000	0.333722
	1.020000	0.264659
	1.025000	0.389630
	1.030000	0.452116
	1.035000	0.333722
	1.040000	0.271236
	1.045000	0.392919
	1.050000	0.448827
	1.055000	0.330433
	1.060000	0.267948
	1.065000	0.392919
	1.070000	0.452116
	1.075000	0.327145
	1.080000	0.274525
	1.085000	0.392919
	1.090000	0.452116
	1.095000	0.333722
	1.100000	0.271236
	1.105000	0.392919
	1.110000	0.452116
	1.115000	0.330433
	1.120000	0.267948
	1.125000	0.392919
	1.130000	0.452116
	1.135000	0.333722
	1.140000	0.271236
	1.145000	0.392919
	1.150000	0.448827
	1.155000	0.330433
	1.160000	0.271236
	1.165000	0.389630
	1.170000	0.448827
	1.175000	0.330433
	1.180000	0.271236
	1.185000	0.392919
	1.190000	0.445539
	1.195000	0.327145
	1.200000	0.274525
	1.205000	0.392919
	1.210000	0.448827
	1.215000	0.327145
	1.220000	0.271236
	1.225000	0.389630
	1.230000	0.452116
	1.235000	0.330433
	1.240000	0.267948
	1.245000	0.396208
	1.250000	0.445539
	1.255000	0.330433
	1.260000	0.267948
	1.265000	0.389630
	1.270000	0.448827
	1.275000	0.327145
	1.280000	0.271236
	1.285000	0.386342
	1.290000	0.452116
	1.295000	0.327145
	1.300000	0.274525
	1.305000	0.389630
	1.310000	0.448827
	1.315000	0.333722
	1.320000	0.274525
	1.325000	0.386342
	1.330000	0.448827
	1.335000	0.327145
	1.340000	0.267948
	1.345000	0.386342
	1.350000	0.448827
	1.355000	0.333722
	1.360000	0.264659
	1.365000	0.392919
	1.370000	0.448827
	1.375000	0.330433
	1.380000	0.267948
	1.385000	0.389630
	1.390000	0.445539
	1.395000	0.323856
	1.400000	0.267948
	1.405000	0.386342
	1.410000	0.445539
	1.415000	0.327145
	1.420000	0.267948
	1.425000	0.389630
	1.430000	0.452116
	1.435000	0.327145
	1.440000	0.267948
	1.445000	0.389630
	1.450000	0.445539
	1.455000	0.327145
	1.460000	0.267948
	1.465000	0.389630
	1.470000	0.448827
	1.475000	0.327145
	1.480000	0.264659
	1.485000	0.386342
	1.490000	0.445539
	1.495000	0.323856
	1.500000	0.264659
	1.505000	0.389630
	1.510000	0.448827
	1.515000	0.327145
	1.520000	0.264659
	1.525000	0.383053
	1.530000	0.442250
	1.535000	0.323856
	1.540000	0.267948
	1.545000	0.386342
	1.550000	0.442250
	1.555000	0.323856
	1.560000	0.264659
	1.565000	0.389630
	1.570000	0.442250
	1.575000	0.323856
	1.580000	0.271236
	1.585000	0.386342
	1.590000	0.442250
	1.595000	0.320567
	1.600000	0.264659
	1.605000	0.386342
	1.610000	0.438961
	1.615000	0.327145
	1.620000	0.264659
	1.625000	0.386342
	1.630000	0.445539
	1.635000	0.327145
	1.640000	0.264659
	1.645000	0.386342
	1.650000	0.445539
	1.655000	0.320567
	1.660000	0.264659
	1.665000	0.386342
	1.670000	0.442250
	1.675000	0.323856
	1.680000	0.261370
	1.685000	0.383053
	1.690000	0.445539
	1.695000	0.323856
	1.700000	0.267948
	1.705000	0.386342
	1.710000	0.445539
	1.715000	0.320567
	1.720000	0.261370
	1.725000	0.386342
	1.730000	0.445539
	1.735000	0.323856
	1.740000	0.264659
	1.745000	0.386342
	1.750000	0.442250
	1.755000	0.320567
	1.760000	0.261370
	1.765000	0.386342
	1.770000	0.442250
	1.775000	0.320567
	1.780000	0.264659
	1.785000	0.389630
	1.790000	0.445539
	1.795000	0.323856
	1.800000	0.261370
	1.805000	0.386342
	1.810000	0.442250
	1.815000	0.320567
	1.820000	0.261370
	1.825000	0.383053
	1.830000	0.438961
	1.835000	0.323856
	1.840000	0.261370
	1.845000	0.383053
	1.850000	0.445539
	1.855000	0.320567
	1.860000	0.258081
	1.865000	0.386342
	1.870000	0.438961
	1.875000	0.320567
	1.880000	0.264659
	1.885000	0.383053
	1.890000	0.442250
	1.895000	0.320567
	1.900000	0.261370
	1.905000	0.379764
	1.910000	0.442250
	1.915000	0.320567
	1.920000	0.261370
	1.925000	0.386342
	1.930000	0.442250
	1.935000	0.323856
	1.940000	0.261370
	1.945000	0.386342
	1.950000	0.438961
	1.955000	0.320567
	1.960000	0.261370
	1.965000	0.383053
	1.970000	0.438961
	1.975000	0.320567
	1.980000	0.264659
	1.985000	0.383053
	1.990000	0.438961
	1.995000	0.317278
	2.000000	0.258081
	2.005000	0.386342
	2.010000	0.442250
	2.015000	0.320567
	2.020000	0.261370
	2.025000	0.383053
	2.030000	0.442250
	2.035000	0.320567
	2.040000	0.261370
	2.045000	0.383053
	2.050000	0.438961
	2.055000	0.320567
	2.060000	0.258081
	2.065000	0.376475
	2.070000	0.435672
	2.075000	0.320567
	2.080000	0.258081
	2.085000	0.383053
	2.090000	0.438961
	2.095000	0.317278
	2.100000	0.258081
	2.105000	0.373187
	2.110000	0.438961
	2.115000	0.320567
	2.120000	0.258081
	2.125000	0.379764
	2.130000	0.438961
	2.135000	0.317278
	2.140000	0.258081
	2.145000	0.376475
	2.150000	0.438961
	2.155000	0.317278
	2.160000	0.254793
	2.165000	0.379764
	2.170000	0.435672
	2.175000	0.317278
	2.180000	0.258081
	2.185000	0.379764
	2.190000	0.438961
	2.195000	0.313990
	2.200000	0.258081
	2.205000	0.379764
	2.210000	0.435672
	2.215000	0.317278
	2.220000	0.261370
	2.225000	0.379764
	2.230000	0.438961
	2.235000	0.320567
	2.240000	0.258081
	2.245000	0.379764
	2.250000	0.432384
	2.255000	0.320567
	2.260000	0.258081
	2.265000	0.379764
	2.270000	0.438961
	2.275000	0.313990
	2.280000	0.258081
	2.285000	0.379764
	2.290000	0.435672
	2.295000	0.317278
	2.300000	0.258081
	2.305000	0.386342
	2.310000	0.438961
	2.315000	0.313990
	2.320000	0.261370
	2.325000	0.379764
	2.330000	0.435672
	2.335000	0.310701
	2.340000	0.258081
	2.345000	0.376475
	2.350000	0.438961
	2.355000	0.313990
	2.360000	0.258081
	2.365000	0.376475
	2.370000	0.438961
	2.375000	0.310701
	2.380000	0.258081
	2.385000	0.379764
	2.390000	0.435672
	2.395000	0.313990
	2.400000	0.254793
	2.405000	0.383053
	2.410000	0.438961
	2.415000	0.317278
	2.420000	0.261370
	2.425000	0.383053
	2.430000	0.435672
	2.435000	0.313990
	2.440000	0.258081
	2.445000	0.379764
	2.450000	0.435672
	2.455000	0.313990
	2.460000	0.258081
	2.465000	0.376475
	2.470000	0.438961
	2.475000	0.310701
	2.480000	0.258081
	2.485000	0.376475
	2.490000	0.435672
	2.495000	0.310701
	2.500000	0.254793
	2.505000	0.379764
	2.510000	0.432384
	2.515000	0.313990
	2.520000	0.261370
	2.525000	0.376475
	2.530000	0.438961
	2.535000	0.313990
	2.540000	0.254793
	2.545000	0.373187
	2.550000	0.432384
	2.555000	0.313990
	2.560000	0.251504
	2.565000	0.379764
	2.570000	0.435672
	2.575000	0.313990
	2.580000	0.254793
	2.585000	0.379764
	2.590000	0.438961
	2.595000	0.313990
	2.600000	0.251504
	2.605000	0.376475
	2.610000	0.432384
	2.615000	0.310701
	2.620000	0.254793
	2.625000	0.376475
	2.630000	0.435672
	2.635000	0.313990
	2.640000	0.258081
	2.645000	0.373187
	2.650000	0.435672
	2.655000	0.317278
	2.660000	0.258081
	2.665000	0.379764
	2.670000	0.432384
	2.675000	0.313990
	2.680000	0.254793
	2.685000	0.373187
	2.690000	0.432384
	2.695000	0.310701
	2.700000	0.261370
	2.705000	0.373187
	2.710000	0.435672
	2.715000	0.313990
	2.720000	0.254793
	2.725000	0.379764
	2.730000	0.435672
	2.735000	0.310701
	2.740000	0.254793
	2.745000	0.373187
	2.750000	0.429095
	2.755000	0.310701
	2.760000	0.254793
	2.765000	0.379764
	2.770000	0.435672
	2.775000	0.310701
	2.780000	0.254793
	2.785000	0.376475
	2.790000	0.432384
	2.795000	0.313990
	2.800000	0.254793
	2.805000	0.376475
	2.810000	0.432384
	2.815000	0.313990
	2.820000	0.254793
	2.825000	0.376475
	2.830000	0.432384
	2.835000	0.310701
	2.840000	0.258081
	2.845000	0.369898
	2.850000	0.432384
	2.855000	0.307412
	2.860000	0.254793
	2.865000	0.376475
	2.870000	0.432384
	2.875000	0.310701
	2.880000	0.258081
	2.885000	0.376475
	2.890000	0.435672
	2.895000	0.313990
	2.900000	0.251504
	2.905000	0.376475
	2.910000	0.429095
	2.915000	0.310701
	2.920000	0.251504
	2.925000	0.376475
	2.930000	0.438961
	2.935000	0.310701
	2.940000	0.258081
	2.945000	0.373187
	2.950000	0.425806
	2.955000	0.310701
	2.960000	0.251504
	2.965000	0.369898
	2.970000	0.432384
	2.975000	0.307412
	2.980000	0.251504
	2.985000	0.376475
	2.990000	0.435672
	2.995000	0.310701
	3.000000	0.254793
	3.005000	0.376475
	3.010000	0.432384
	3.015000	0.310701
	3.020000	0.254793
	3.025000	0.376475
	3.030000	0.432384
	3.035000	0.307412
	3.040000	0.254793
	3.045000	0.376475
	3.050000	0.432384
	3.055000	0.307412
	3.060000	0.251504
	3.065000	0.373187
	3.070000	0.435672
	3.075000	0.310701
	3.080000	0.258081
	3.085000	0.376475
	3.090000	0.432384
	3.095000	0.313990
	3.100000	0.258081
	3.105000	0.373187
	3.110000	0.432384
	3.115000	0.310701
	3.120000	0.254793
	3.125000	0.376475
	3.130000	0.432384
	3.135000	0.313990
	3.140000	0.251504
	3.145000	0.373187
	3.150000	0.435672
	3.155000	0.313990
	3.160000	0.251504
	3.165000	0.369898
	3.170000	0.432384
	3.175000	0.307412
	3.180000	0.248215
	3.185000	0.373187
	3.190000	0.432384
	3.195000	0.307412
	3.200000	0.248215
	3.205000	0.373187
	3.210000	0.429095
	3.215000	0.307412
	3.220000	0.251504
	3.225000	0.369898
	3.230000	0.432384
	3.235000	0.307412
	3.240000	0.248215
	3.245000	0.373187
	3.250000	0.429095
	3.255000	0.307412
	3.260000	0.251504
	3.265000	0.369898
	3.270000	0.429095
	3.275000	0.307412
	3.280000	0.248215
	3.285000	0.369898
	3.290000	0.429095
	3.295000	0.307412
	3.300000	0.248215
	3.305000	0.369898
	3.310000	0.429095
	3.315000	0.307412
	3.320000	0.251504
	3.325000	0.373187
	3.330000	0.425806
	3.335000	0.307412
	3.340000	0.248215
	3.345000	0.373187
	3.350000	0.429095
	3.355000	0.307412
	3.360000	0.248215
	3.365000	0.366609
	3.370000	0.429095
	3.375000	0.307412
	3.380000	0.248215
	3.385000	0.369898
	3.390000	0.429095
	3.395000	0.307412
	3.400000	0.248215
	3.405000	0.369898
	3.410000	0.429095
	3.415000	0.307412
	3.420000	0.244927
	3.425000	0.369898
	3.430000	0.429095
	3.435000	0.307412
	3.440000	0.248215
	3.445000	0.369898
	3.450000	0.432384
	3.455000	0.304124
	3.460000	0.251504
	3.465000	0.373187
	3.470000	0.435672
	3.475000	0.304124
	3.480000	0.248215
	3.485000	0.369898
	3.490000	0.425806
	3.495000	0.310701
	3.500000	0.251504
	3.505000	0.373187
	3.510000	0.429095
	3.515000	0.310701
	3.520000	0.248215
	3.525000	0.379764
	3.530000	0.429095
	3.535000	0.310701
	3.540000	0.254793
	3.545000	0.373187
	3.550000	0.435672
	3.555000	0.313990
	3.560000	0.251504
	3.565000	0.376475
	3.570000	0.432384
	3.575000	0.310701
	3.580000	0.254793
	3.585000	0.376475
	3.590000	0.435672
	3.595000	0.313990
	3.600000	0.261370
	3.605000	0.379764
	3.610000	0.435672
	3.615000	0.313990
	3.620000	0.261370
	3.625000	0.379764
	3.630000	0.435672
	3.635000	0.313990
	3.640000	0.258081
	3.645000	0.383053
	3.650000	0.438961
	3.655000	0.317278
	3.660000	0.261370
	3.665000	0.383053
	3.670000	0.438961
	3.675000	0.320567
	3.680000	0.264659
	3.685000	0.386342
	3.690000	0.442250
	3.695000	0.323856
	3.700000	0.267948
	3.705000	0.386342
	3.710000	0.442250
	3.715000	0.320567
	3.720000	0.271236
	3.725000	0.389630
	3.730000	0.448827
	3.735000	0.327145
	3.740000	0.274525
	3.745000	0.392919
	3.750000	0.448827
	3.755000	0.327145
	3.760000	0.267948
	3.765000	0.389630
	3.770000	0.448827
	3.775000	0.330433
	3.780000	0.267948
	3.785000	0.396208
	3.790000	0.445539
	3.795000	0.323856
	3.800000	0.267948
	3.805000	0.392919
	3.810000	0.452116
	3.815000	0.323856
	3.820000	0.264659
	3.825000	0.389630
	3.830000	0.448827
	3.835000	0.323856
	3.840000	0.261370
	3.845000	0.386342
	3.850000	0.442250
	3.855000	0.317278
	3.860000	0.264659
	3.865000	0.379764
	3.870000	0.445539
	3.875000	0.323856
	3.880000	0.261370
	3.885000	0.386342
	3.890000	0.435672
	3.895000	0.317278
	3.900000	0.258081
	3.905000	0.379764
	3.910000	0.438961
	3.915000	0.313990
	3.920000	0.254793
	3.925000	0.379764
	3.930000	0.432384
	3.935000	0.313990
	3.940000	0.254793
	3.945000	0.376475
	3.950000	0.432384
	3.955000	0.310701
	3.960000	0.251504
	3.965000	0.373187
	3.970000	0.429095
	3.975000	0.307412
	3.980000	0.248215
	3.985000	0.373187
	3.990000	0.425806
	3.995000	0.307412
	4.000000	0.251504
	4.005000	0.369898
	4.010000	0.425806
	4.015000	0.304124
	4.020000	0.248215
	4.025000	0.373187
	4.030000	0.425806
	4.035000	0.304124
	4.040000	0.248215
	4.045000	0.369898
	4.050000	0.422518
	4.055000	0.310701
	4.060000	0.251504
	4.065000	0.366609
	4.070000	0.422518
	4.075000	0.307412
	4.080000	0.244927
	4.085000	0.363321
	4.090000	0.422518
	4.095000	0.304124
	4.100000	0.244927
	4.105000	0.369898
	4.110000	0.425806
	4.115000	0.304124
	4.120000	0.244927
	4.125000	0.366609
	4.130000	0.429095
	4.135000	0.307412
	4.140000	0.251504
	4.145000	0.373187
	4.150000	0.422518
	4.155000	0.304124
	4.160000	0.244927
	4.165000	0.369898
	4.170000	0.425806
	4.175000	0.307412
	4.180000	0.244927
	4.185000	0.366609
	4.190000	0.425806
	4.195000	0.304124
	4.200000	0.248215
	4.205000	0.369898
	4.210000	0.422518
	4.215000	0.307412
	4.220000	0.251504
	4.225000	0.369898
	4.230000	0.429095
	4.235000	0.307412
	4.240000	0.254793
	4.245000	0.369898
	4.250000	0.425806
	4.255000	0.304124
	4.260000	0.251504
	4.265000	0.373187
	4.270000	0.429095
	4.275000	0.304124
	4.280000	0.251504
	4.285000	0.373187
	4.290000	0.425806
	4.295000	0.307412
	4.300000	0.248215
	4.305000	0.373187
	4.310000	0.432384
	4.315000	0.304124
	4.320000	0.251504
	4.325000	0.369898
	4.330000	0.432384
	4.335000	0.304124
	4.340000	0.251504
	4.345000	0.373187
	4.350000	0.429095
	4.355000	0.304124
	4.360000	0.248215
	4.365000	0.369898
	4.370000	0.425806
	4.375000	0.304124
	4.380000	0.251504
	4.385000	0.369898
	4.390000	0.425806
	4.395000	0.304124
	4.400000	0.251504
	4.405000	0.366609
	4.410000	0.422518
	4.415000	0.304124
	4.420000	0.241638
	4.425000	0.363321
	4.430000	0.422518
	4.435000	0.297546
	4.440000	0.241638
	4.445000	0.366609
	4.450000	0.422518
	4.455000	0.297546
	4.460000	0.244927
	4.465000	0.356743
	4.470000	0.419229
	4.475000	0.297546
	4.480000	0.238349
	4.485000	0.360032
	4.490000	0.415940
	4.495000	0.290969
	4.500000	0.235060
	4.505000	0.356743
	4.510000	0.412651
	4.515000	0.290969
	4.520000	0.235060
	4.525000	0.356743
	4.530000	0.415940
	4.535000	0.290969
	4.540000	0.231772
	4.545000	0.356743
	4.550000	0.419229
	4.555000	0.290969
	4.560000	0.241638
	4.565000	0.356743
	4.570000	0.412651
	4.575000	0.290969
	4.580000	0.235060
	4.585000	0.360032
	4.590000	0.415940
	4.595000	0.290969
	4.600000	0.238349
	4.605000	0.360032
	4.610000	0.412651
	4.615000	0.294257
	4.620000	0.238349
	4.625000	0.363321
	4.630000	0.415940
	4.635000	0.294257
	4.640000	0.238349
	4.645000	0.363321
	4.650000	0.415940
	4.655000	0.294257
	4.660000	0.238349
	4.665000	0.360032
	4.670000	0.415940
	4.675000	0.294257
	4.680000	0.235060
	4.685000	0.363321
	4.690000	0.415940
	4.695000	0.300835
	4.700000	0.238349
	4.705000	0.360032
	4.710000	0.415940
	4.715000	0.297546
	4.720000	0.235060
	4.725000	0.366609
	4.730000	0.415940
	4.735000	0.297546
	4.740000	0.235060
	4.745000	0.360032
	4.750000	0.412651
	4.755000	0.297546
	4.760000	0.238349
	4.765000	0.363321
	4.770000	0.419229
	4.775000	0.294257
	4.780000	0.238349
	4.785000	0.363321
	4.790000	0.419229
	4.795000	0.297546
	4.800000	0.241638
	4.805000	0.363321
	4.810000	0.419229
	4.815000	0.294257
	4.820000	0.244927
	4.825000	0.360032
	4.830000	0.419229
	4.835000	0.297546
	4.840000	0.238349
	4.845000	0.360032
	4.850000	0.419229
	4.855000	0.294257
	4.860000	0.235060
	4.865000	0.360032
	4.870000	0.415940
	4.875000	0.290969
	4.880000	0.238349
	4.885000	0.360032
	4.890000	0.412651
	4.895000	0.300835
	4.900000	0.238349
	4.905000	0.360032
	4.910000	0.415940
	4.915000	0.297546
	4.920000	0.241638
	4.925000	0.356743
	4.930000	0.419229
	4.935000	0.297546
	4.940000	0.238349
	4.945000	0.356743
	4.950000	0.415940
	4.955000	0.294257
	4.960000	0.241638
	4.965000	0.360032
	4.970000	0.415940
	4.975000	0.297546
	4.980000	0.235060
	4.985000	0.363321
	4.990000	0.415940
	4.995000	0.294257
	5.000000	0.238349
	5.005000	0.360032
	5.010000	0.419229
	5.015000	0.294257
	5.020000	0.235060
	5.025000	0.356743
	5.030000	0.415940
	5.035000	0.294257
	5.040000	0.238349
	5.045000	0.360032
	5.050000	0.412651
	5.055000	0.294257
	5.060000	0.238349
	5.065000	0.356743
	5.070000	0.415940
	5.075000	0.294257
	5.080000	0.238349
	5.085000	0.360032
	5.090000	0.412651
	5.095000	0.294257
	5.100000	0.238349
	5.105000	0.360032
	5.110000	0.415940
	5.115000	0.294257
	5.120000	0.235060
	5.125000	0.360032
	5.130000	0.415940
	5.135000	0.290969
	5.140000	0.238349
	5.145000	0.360032
	5.150000	0.415940
	5.155000	0.294257
	5.160000	0.238349
	5.165000	0.356743
	5.170000	0.419229
	5.175000	0.290969
	5.180000	0.241638
	5.185000	0.356743
	5.190000	0.412651
	5.195000	0.290969
	5.200000	0.238349
	5.205000	0.356743
	5.210000	0.412651
	5.215000	0.287680
	5.220000	0.235060
	5.225000	0.360032
	5.230000	0.415940
	5.235000	0.294257
	5.240000	0.241638
	5.245000	0.360032
	5.250000	0.409363
	5.255000	0.290969
	5.260000	0.238349
	5.265000	0.363321
	5.270000	0.409363
	5.275000	0.290969
	5.280000	0.238349
	5.285000	0.356743
	5.290000	0.415940
	5.295000	0.290969
	5.300000	0.238349
	5.305000	0.356743
	5.310000	0.412651
	5.315000	0.290969
	5.320000	0.235060
	5.325000	0.353454
	5.330000	0.409363
	5.335000	0.294257
	5.340000	0.238349
	5.345000	0.356743
	5.350000	0.412651
	5.355000	0.294257
	5.360000	0.238349
	5.365000	0.360032
	5.370000	0.412651
	5.375000	0.290969
	5.380000	0.231772
	5.385000	0.360032
	5.390000	0.412651
	5.395000	0.294257
	5.400000	0.231772
	5.405000	0.356743
	5.410000	0.412651
	5.415000	0.294257
	5.420000	0.238349
	5.425000	0.356743
	5.430000	0.412651
	5.435000	0.294257
	5.440000	0.238349
	5.445000	0.353454
	5.450000	0.409363
	5.455000	0.290969
	5.460000	0.238349
	5.465000	0.353454
	5.470000	0.415940
	5.475000	0.294257
	5.480000	0.235060
	5.485000	0.356743
	5.490000	0.409363
	5.495000	0.290969
	5.500000	0.231772
	5.505000	0.356743
	5.510000	0.415940
	5.515000	0.294257
	5.520000	0.235060
	5.525000	0.356743
	5.530000	0.415940
	5.535000	0.294257
	5.540000	0.238349
	5.545000	0.356743
	5.550000	0.412651
	5.555000	0.294257
	5.560000	0.241638
	5.565000	0.353454
	5.570000	0.415940
	5.575000	0.294257
	5.580000	0.241638
	5.585000	0.360032
	5.590000	0.412651
	5.595000	0.294257
	5.600000	0.238349
	5.605000	0.363321
	5.610000	0.412651
	5.615000	0.294257
	5.620000	0.238349
	5.625000	0.360032
	5.630000	0.412651
	5.635000	0.294257
	5.640000	0.235060
	5.645000	0.360032
	5.650000	0.409363
	5.655000	0.294257
	5.660000	0.241638
	5.665000	0.356743
	5.670000	0.419229
	5.675000	0.294257
	5.680000	0.238349
	5.685000	0.360032
	5.690000	0.412651
	5.695000	0.290969
	5.700000	0.238349
	5.705000	0.360032
	5.710000	0.415940
	5.715000	0.294257
	5.720000	0.238349
	5.725000	0.356743
	5.730000	0.412651
	5.735000	0.294257
	5.740000	0.238349
	5.745000	0.360032
	5.750000	0.412651
	5.755000	0.294257
	5.760000	0.238349
	5.765000	0.356743
	5.770000	0.412651
	5.775000	0.294257
	5.780000	0.238349
	5.785000	0.360032
	5.790000	0.415940
	5.795000	0.297546
	5.800000	0.238349
	5.805000	0.360032
	5.810000	0.412651
	5.815000	0.290969
	5.820000	0.238349
	5.825000	0.360032
	5.830000	0.415940
	5.835000	0.297546
	5.840000	0.238349
	5.845000	0.360032
	5.850000	0.412651
	5.855000	0.290969
	5.860000	0.241638
	5.865000	0.356743
	5.870000	0.415940
	5.875000	0.290969
	5.880000	0.238349
	5.885000	0.356743
	5.890000	0.412651
	5.895000	0.290969
	5.900000	0.235060
	5.905000	0.356743
	5.910000	0.412651
	5.915000	0.287680
	5.920000	0.235060
	5.925000	0.360032
	5.930000	0.409363
	5.935000	0.290969
	5.940000	0.235060
	5.945000	0.356743
	5.950000	0.415940
	5.955000	0.294257
	5.960000	0.235060
	5.965000	0.356743
	5.970000	0.412651
	5.975000	0.290969
	5.980000	0.241638
	5.985000	0.353454
	5.990000	0.409363
	5.995000	0.297546
	6.000000	0.238349
	6.005000	0.356743
	6.010000	0.409363
	6.015000	0.290969
	6.020000	0.235060
	6.025000	0.353454
	6.030000	0.412651
	6.035000	0.290969
	6.040000	0.238349
	6.045000	0.353454
	6.050000	0.412651
	6.055000	0.290969
	6.060000	0.235060
	6.065000	0.356743
	6.070000	0.412651
	6.075000	0.290969
	6.080000	0.238349
	6.085000	0.356743
	6.090000	0.409363
	6.095000	0.294257
	6.100000	0.235060
	6.105000	0.356743
	6.110000	0.412651
	6.115000	0.290969
	6.120000	0.235060
	6.125000	0.353454
	6.130000	0.409363
	6.135000	0.290969
	6.140000	0.238349
	6.145000	0.356743
	6.150000	0.409363
	6.155000	0.290969
	6.160000	0.238349
	6.165000	0.353454
	6.170000	0.412651
	6.175000	0.290969
	6.180000	0.235060
	6.185000	0.353454
	6.190000	0.412651
	6.195000	0.290969
	6.200000	0.238349
	6.205000	0.360032
	6.210000	0.409363
	6.215000	0.290969
	6.220000	0.241638
	6.225000	0.356743
	6.230000	0.415940
	6.235000	0.290969
	6.240000	0.235060
	6.245000	0.353454
	6.250000	0.412651
	6.255000	0.290969
	6.260000	0.235060
	6.265000	0.353454
	6.270000	0.409363
	6.275000	0.294257
	6.280000	0.238349
	6.285000	0.356743
	6.290000	0.409363
	6.295000	0.290969
	6.300000	0.235060
	6.305000	0.356743
	6.310000	0.412651
	6.315000	0.290969
	6.320000	0.238349
	6.325000	0.360032
	6.330000	0.412651
	6.335000	0.287680
	6.340000	0.235060
	6.345000	0.353454
	6.350000	0.412651
	6.355000	0.294257
	6.360000	0.235060
	6.365000	0.356743
	6.370000	0.406074
	6.375000	0.290969
	6.380000	0.238349
	6.385000	0.356743
	6.390000	0.415940
	6.395000	0.290969
	6.400000	0.231772
	6.405000	0.356743
	6.410000	0.412651
	6.415000	0.294257
	6.420000	0.231772
	6.425000	0.356743
	6.430000	0.412651
	6.435000	0.294257
	6.440000	0.238349
	6.445000	0.353454
	6.450000	0.409363
	6.455000	0.290969
	6.460000	0.235060
	6.465000	0.356743
	6.470000	0.412651
	6.475000	0.290969
	6.480000	0.238349
	6.485000	0.356743
	6.490000	0.412651
	6.495000	0.294257
	6.500000	0.241638
	6.505000	0.353454
	6.510000	0.412651
	6.515000	0.290969
	6.520000	0.235060
	6.525000	0.356743
	6.530000	0.412651
	6.535000	0.290969
	6.540000	0.235060
	6.545000	0.360032
	6.550000	0.412651
	6.555000	0.287680
	6.560000	0.241638
	6.565000	0.353454
	6.570000	0.409363
	6.575000	0.290969
	6.580000	0.238349
	6.585000	0.353454
	6.590000	0.412651
	6.595000	0.284391
	6.600000	0.235060
	6.605000	0.353454
	6.610000	0.409363
	6.615000	0.287680
	6.620000	0.231772
	6.625000	0.353454
	6.630000	0.412651
	6.635000	0.290969
	6.640000	0.235060
	6.645000	0.353454
	6.650000	0.409363
	6.655000	0.287680
	6.660000	0.235060
	6.665000	0.356743
	6.670000	0.409363
	6.675000	0.290969
	6.680000	0.235060
	6.685000	0.360032
	6.690000	0.412651
	6.695000	0.290969
	6.700000	0.235060
	6.705000	0.356743
	6.710000	0.409363
	6.715000	0.290969
	6.720000	0.235060
	6.725000	0.353454
	6.730000	0.406074
	6.735000	0.287680
	6.740000	0.238349
	6.745000	0.356743
	6.750000	0.412651
	6.755000	0.290969
	6.760000	0.235060
	6.765000	0.356743
	6.770000	0.406074
	6.775000	0.287680
	6.780000	0.231772
	6.785000	0.353454
	6.790000	0.412651
	6.795000	0.287680
	6.800000	0.235060
	6.805000	0.353454
	6.810000	0.412651
	6.815000	0.290969
	6.820000	0.231772
	6.825000	0.350166
	6.830000	0.409363
	6.835000	0.284391
	6.840000	0.238349
	6.845000	0.356743
	6.850000	0.412651
	6.855000	0.290969
	6.860000	0.235060
	6.865000	0.356743
	6.870000	0.412651
	6.875000	0.287680
	6.880000	0.235060
	6.885000	0.356743
	6.890000	0.412651
	6.895000	0.290969
	6.900000	0.235060
	6.905000	0.356743
	6.910000	0.409363
	6.915000	0.290969
	6.920000	0.235060
	6.925000	0.353454
	6.930000	0.412651
	6.935000	0.287680
	6.940000	0.235060
	6.945000	0.356743
	6.950000	0.409363
	6.955000	0.287680
	6.960000	0.238349
	6.965000	0.356743
	6.970000	0.409363
	6.975000	0.290969
	6.980000	0.235060
	6.985000	0.356743
	6.990000	0.406074
	6.995000	0.287680
	7.000000	0.235060
	7.005000	0.353454
	7.010000	0.415940
	7.015000	0.287680
	7.020000	0.235060
	7.025000	0.353454
	7.030000	0.412651
	7.035000	0.290969
	7.040000	0.235060
	7.045000	0.356743
	7.050000	0.409363
	7.055000	0.290969
	7.060000	0.235060
	7.065000	0.356743
	7.070000	0.409363
	7.075000	0.290969
	7.080000	0.235060
	7.085000	0.356743
	7.090000	0.409363
	7.095000	0.290969
	7.100000	0.235060
	7.105000	0.356743
	7.110000	0.412651
	7.115000	0.284391
	7.120000	0.231772
	7.125000	0.353454
	7.130000	0.406074
	7.135000	0.287680
	7.140000	0.231772
	7.145000	0.356743
	7.150000	0.406074
	7.155000	0.290969
	7.160000	0.235060
	7.165000	0.353454
	7.170000	0.409363
	7.175000	0.287680
	7.180000	0.228483
	7.185000	0.353454
	7.190000	0.406074
	7.195000	0.287680
	7.200000	0.228483
	7.205000	0.353454
	7.210000	0.409363
	7.215000	0.287680
	7.220000	0.235060
	7.225000	0.356743
	7.230000	0.412651
	7.235000	0.287680
	7.240000	0.231772
	7.245000	0.353454
	7.250000	0.409363
	7.255000	0.281102
	7.260000	0.228483
	7.265000	0.353454
	7.270000	0.406074
	7.275000	0.287680
	7.280000	0.231772
	7.285000	0.353454
	7.290000	0.409363
	7.295000	0.287680
	7.300000	0.231772
	7.305000	0.353454
	7.310000	0.406074
	7.315000	0.287680
	7.320000	0.231772
	7.325000	0.353454
	7.330000	0.406074
	7.335000	0.284391
	7.340000	0.231772
	7.345000	0.356743
	7.350000	0.409363
	7.355000	0.284391
	7.360000	0.228483
	7.365000	0.353454
	7.370000	0.406074
	7.375000	0.287680
	7.380000	0.231772
	7.385000	0.353454
	7.390000	0.409363
	7.395000	0.284391
	7.400000	0.231772
	7.405000	0.350166
	7.410000	0.406074
	7.415000	0.284391
	7.420000	0.231772
	7.425000	0.356743
	7.430000	0.406074
	7.435000	0.287680
	7.440000	0.231772
	7.445000	0.356743
	7.450000	0.409363
	7.455000	0.281102
	7.460000	0.231772
	7.465000	0.353454
	7.470000	0.406074
	7.475000	0.284391
	7.480000	0.235060
	7.485000	0.353454
	7.490000	0.409363
	7.495000	0.287680
	7.500000	0.231772
	7.505000	0.353454
	7.510000	0.402785
	7.515000	0.281102
	7.520000	0.235060
	7.525000	0.353454
	7.530000	0.406074
	7.535000	0.284391
	7.540000	0.231772
	7.545000	0.356743
	7.550000	0.409363
	7.555000	0.287680
	7.560000	0.231772
	7.565000	0.353454
	7.570000	0.409363
	7.575000	0.284391
	7.580000	0.228483
	7.585000	0.353454
	7.590000	0.409363
	7.595000	0.287680
	7.600000	0.231772
	7.605000	0.353454
	7.610000	0.409363
	7.615000	0.281102
	7.620000	0.228483
	7.625000	0.353454
	7.630000	0.406074
	7.635000	0.284391
	7.640000	0.231772
	7.645000	0.350166
	7.650000	0.406074
	7.655000	0.281102
	7.660000	0.228483
	7.665000	0.353454
	7.670000	0.399496
	7.675000	0.284391
	7.680000	0.231772
	7.685000	0.356743
	7.690000	0.406074
	7.695000	0.281102
	7.700000	0.228483
	7.705000	0.353454
	7.710000	0.402785
	7.715000	0.284391
	7.720000	0.225194
	7.725000	0.350166
	7.730000	0.409363
	7.735000	0.284391
	7.740000	0.228483
	7.745000	0.350166
	7.750000	0.402785
	7.755000	0.281102
	7.760000	0.228483
	7.765000	0.350166
	7.770000	0.406074
	7.775000	0.287680
	7.780000	0.235060
	7.785000	0.356743
	7.790000	0.409363
	7.795000	0.284391
	7.800000	0.235060
	7.805000	0.353454
	7.810000	0.415940
	7.815000	0.290969
	7.820000	0.238349
	7.825000	0.363321
	7.830000	0.415940
	7.835000	0.290969
	7.840000	0.235060
	7.845000	0.360032
	7.850000	0.415940
	7.855000	0.294257
	7.860000	0.241638
	7.865000	0.366609
	7.870000	0.415940
	7.875000	0.294257
	7.880000	0.241638
	7.885000	0.366609
	7.890000	0.419229
	7.895000	0.294257
	7.900000	0.244927
	7.905000	0.366609
	7.910000	0.419229
	7.915000	0.294257
	7.920000	0.241638
	7.925000	0.366609
	7.930000	0.415940
	7.935000	0.294257
	7.940000	0.241638
	7.945000	0.360032
	7.950000	0.415940
	7.955000	0.290969
	7.960000	0.238349
	7.965000	0.353454
	7.970000	0.409363
	7.975000	0.287680
	7.980000	0.235060
	7.985000	0.350166
	7.990000	0.402785
	7.995000	0.281102
	8.000000	0.225194
	8.005000	0.350166
	8.010000	0.396208
	8.015000	0.274525
	8.020000	0.221905
	8.025000	0.346877
	8.030000	0.396208
	8.035000	0.274525
	8.040000	0.225194
	8.045000	0.346877
	8.050000	0.402785
	8.055000	0.277814
	8.060000	0.221905
	8.065000	0.343588
	8.070000	0.399496
	8.075000	0.274525
	8.080000	0.225194
	8.085000	0.350166
	8.090000	0.402785
	8.095000	0.277814
	8.100000	0.225194
	8.105000	0.353454
	8.110000	0.399496
	8.115000	0.281102
	8.120000	0.231772
	8.125000	0.356743
	8.130000	0.406074
	8.135000	0.290969
	8.140000	0.241638
	8.145000	0.366609
	8.150000	0.419229
	8.155000	0.297546
	8.160000	0.251504
	8.165000	0.373187
	8.170000	0.429095
	8.175000	0.304124
	8.180000	0.254793
	8.185000	0.373187
	8.190000	0.425806
	8.195000	0.300835
	8.200000	0.254793
	8.205000	0.376475
	8.210000	0.425806
	8.215000	0.300835
	8.220000	0.254793
	8.225000	0.373187
	8.230000	0.425806
	8.235000	0.300835
	8.240000	0.251504
	8.245000	0.369898
	8.250000	0.419229
	8.255000	0.294257
	8.260000	0.248215
	8.265000	0.369898
	8.270000	0.419229
	8.275000	0.294257
	8.280000	0.241638
	8.285000	0.363321
	8.290000	0.415940
	8.295000	0.294257
	8.300000	0.241638
	8.305000	0.363321
	8.310000	0.412651
	8.315000	0.294257
	8.320000	0.241638
	8.325000	0.360032
	8.330000	0.412651
	8.335000	0.290969
	8.340000	0.238349
	8.345000	0.360032
	8.350000	0.409363
	8.355000	0.287680
	8.360000	0.238349
	8.365000	0.360032
	8.370000	0.409363
	8.375000	0.287680
	8.380000	0.231772
	8.385000	0.360032
	8.390000	0.409363
	8.395000	0.287680
	8.400000	0.235060
	8.405000	0.360032
	8.410000	0.409363
	8.415000	0.284391
	8.420000	0.235060
	8.425000	0.356743
	8.430000	0.406074
	8.435000	0.284391
	8.440000	0.235060
	8.445000	0.353454
	8.450000	0.409363
	8.455000	0.287680
	8.460000	0.235060
	8.465000	0.356743
	8.470000	0.402785
	8.475000	0.284391
	8.480000	0.235060
	8.485000	0.353454
	8.490000	0.406074
	8.495000	0.284391
	8.500000	0.235060
	8.505000	0.356743
	8.510000	0.402785
	8.515000	0.277814
	8.520000	0.231772
	8.525000	0.353454
	8.530000	0.409363
	8.535000	0.281102
	8.540000	0.235060
	8.545000	0.356743
	8.550000	0.406074
	8.555000	0.287680
	8.560000	0.228483
	8.565000	0.360032
	8.570000	0.406074
	8.575000	0.284391
	8.580000	0.235060
	8.585000	0.356743
	8.590000	0.409363
	8.595000	0.287680
	8.600000	0.235060
	8.605000	0.356743
	8.610000	0.412651
	8.615000	0.287680
	8.620000	0.238349
	8.625000	0.363321
	8.630000	0.412651
	8.635000	0.290969
	8.640000	0.238349
	8.645000	0.360032
	8.650000	0.415940
	8.655000	0.287680
	8.660000	0.238349
	8.665000	0.360032
	8.670000	0.412651
	8.675000	0.284391
	8.680000	0.238349
	8.685000	0.360032
	8.690000	0.412651
	8.695000	0.284391
	8.700000	0.238349
	8.705000	0.363321
	8.710000	0.415940
	8.715000	0.290969
	8.720000	0.238349
	8.725000	0.363321
	8.730000	0.409363
	8.735000	0.287680
	8.740000	0.235060
	8.745000	0.360032
	8.750000	0.409363
	8.755000	0.284391
	8.760000	0.235060
	8.765000	0.353454
	8.770000	0.402785
	8.775000	0.284391
	8.780000	0.231772
	8.785000	0.353454
	8.790000	0.402785
	8.795000	0.274525
	8.800000	0.228483
	8.805000	0.350166
	8.810000	0.399496
	8.815000	0.274525
	8.820000	0.225194
	8.825000	0.350166
	8.830000	0.392919
	8.835000	0.267948
	8.840000	0.221905
	8.845000	0.346877
	8.850000	0.389630
	8.855000	0.267948
	8.860000	0.221905
	8.865000	0.343588
	8.870000	0.389630
	8.875000	0.267948
	8.880000	0.221905
	8.885000	0.346877
	8.890000	0.396208
	8.895000	0.274525
	8.900000	0.221905
	8.905000	0.346877
	8.910000	0.396208
	8.915000	0.274525
	8.920000	0.221905
	8.925000	0.346877
	8.930000	0.396208
	8.935000	0.271236
	8.940000	0.218617
	8.945000	0.346877
	8.950000	0.399496
	8.955000	0.267948
	8.960000	0.221905
	8.965000	0.346877
	8.970000	0.392919
	8.975000	0.274525
	8.980000	0.221905
	8.985000	0.343588
	8.990000	0.396208
	8.995000	0.274525
	9.000000	0.225194
	9.005000	0.346877
	9.010000	0.396208
	9.015000	0.271236
	9.020000	0.225194
	9.025000	0.346877
	9.030000	0.396208
	9.035000	0.274525
	9.040000	0.225194
	9.045000	0.346877
	9.050000	0.396208
	9.055000	0.274525
	9.060000	0.225194
	9.065000	0.350166
	9.070000	0.402785
	9.075000	0.277814
	9.080000	0.221905
	9.085000	0.350166
	9.090000	0.392919
	9.095000	0.274525
	9.100000	0.225194
	9.105000	0.350166
	9.110000	0.396208
	9.115000	0.277814
	9.120000	0.231772
	9.125000	0.353454
	9.130000	0.402785
	9.135000	0.274525
	9.140000	0.225194
	9.145000	0.350166
	9.150000	0.399496
	9.155000	0.274525
	9.160000	0.225194
	9.165000	0.353454
	9.170000	0.399496
	9.175000	0.274525
	9.180000	0.225194
	9.185000	0.350166
	9.190000	0.396208
	9.195000	0.277814
	9.200000	0.225194
	9.205000	0.353454
	9.210000	0.399496
	9.215000	0.277814
	9.220000	0.225194
	9.225000	0.353454
	9.230000	0.399496
	9.235000	0.274525
	9.240000	0.228483
	9.245000	0.350166
	9.250000	0.399496
	9.255000	0.274525
	9.260000	0.228483
	9.265000	0.353454
	9.270000	0.399496
	9.275000	0.274525
	9.280000	0.228483
	9.285000	0.353454
	9.290000	0.392919
	9.295000	0.274525
	9.300000	0.225194
	9.305000	0.350166
	9.310000	0.402785
	9.315000	0.274525
	9.320000	0.225194
	9.325000	0.350166
	9.330000	0.399496
	9.335000	0.274525
	9.340000	0.228483
	9.345000	0.353454
	9.350000	0.396208
	9.355000	0.274525
	9.360000	0.225194
	9.365000	0.350166
	9.370000	0.399496
	9.375000	0.271236
	9.380000	0.228483
	9.385000	0.350166
	9.390000	0.396208
	9.395000	0.274525
	9.400000	0.228483
	9.405000	0.353454
	9.410000	0.396208
	9.415000	0.274525
	9.420000	0.225194
	9.425000	0.350166
	9.430000	0.396208
	9.435000	0.274525
	9.440000	0.225194
	9.445000	0.350166
	9.450000	0.392919
	9.455000	0.274525
	9.460000	0.228483
	9.465000	0.350166
	9.470000	0.396208
	9.475000	0.274525
	9.480000	0.225194
	9.485000	0.350166
	9.490000	0.399496
	9.495000	0.277814
	9.500000	0.228483
	9.505000	0.350166
	9.510000	0.396208
	9.515000	0.274525
	9.520000	0.225194
	9.525000	0.350166
	9.530000	0.396208
	9.535000	0.271236
	9.540000	0.225194
	9.545000	0.346877
	9.550000	0.399496
	9.555000	0.274525
	9.560000	0.225194
	9.565000	0.350166
	9.570000	0.392919
	9.575000	0.274525
	9.580000	0.225194
	9.585000	0.350166
	9.590000	0.396208
	9.595000	0.274525
	9.600000	0.221905
	9.605000	0.350166
	9.610000	0.396208
	9.615000	0.274525
	9.620000	0.225194
	9.625000	0.346877
	9.630000	0.399496
	9.635000	0.271236
	9.640000	0.225194
	9.645000	0.353454
	9.650000	0.396208
	9.655000	0.267948
	9.660000	0.221905
	9.665000	0.346877
	9.670000	0.396208
	9.675000	0.271236
	9.680000	0.221905
	9.685000	0.346877
	9.690000	0.396208
	9.695000	0.264659
	9.700000	0.225194
	9.705000	0.346877
	9.710000	0.392919
	9.715000	0.271236
	9.720000	0.221905
	9.725000	0.350166
	9.730000	0.392919
	9.735000	0.274525
	9.740000	0.225194
	9.745000	0.350166
	9.750000	0.392919
	9.755000	0.267948
	9.760000	0.221905
	9.765000	0.346877
	9.770000	0.392919
	9.775000	0.267948
	9.780000	0.225194
	9.785000	0.350166
	9.790000	0.392919
	9.795000	0.271236
	9.800000	0.221905
	9.805000	0.346877
	9.810000	0.389630
	9.815000	0.274525
	9.820000	0.225194
	9.825000	0.346877
	9.830000	0.392919
	9.835000	0.271236
	9.840000	0.225194
	9.845000	0.346877
	9.850000	0.389630
	9.855000	0.271236
	9.860000	0.221905
	9.865000	0.346877
	9.870000	0.396208
	9.875000	0.267948
	9.880000	0.221905
	9.885000	0.346877
	9.890000	0.392919
	9.895000	0.271236
	9.900000	0.221905
	9.905000	0.346877
	9.910000	0.392919
	9.915000	0.267948
	9.920000	0.225194
	9.925000	0.343588
	9.930000	0.392919
	9.935000	0.267948
	9.940000	0.218617
	9.945000	0.346877
	9.950000	0.396208
	9.955000	0.267948
	9.960000	0.225194
	9.965000	0.346877
	9.970000	0.396208
	9.975000	0.267948
	9.980000	0.225194
	9.985000	0.346877
	9.990000	0.392919
	9.995000	0.267948
	10.000000	0.221905
	10.005000	0.343588
	10.010000	0.389630
	10.015000	0.267948
	10.020000	0.225194
	10.025000	0.350166
	10.030000	0.396208
	10.035000	0.267948
	10.040000	0.221905
	10.045000	0.350166
	10.050000	0.392919
	10.055000	0.264659
	10.060000	0.225194
	10.065000	0.350166
	10.070000	0.392919
	10.075000	0.267948
	10.080000	0.225194
	10.085000	0.350166
	10.090000	0.396208
	10.095000	0.267948
	10.100000	0.228483
	10.105000	0.346877
	10.110000	0.396208
	10.115000	0.267948
	10.120000	0.221905
	10.125000	0.346877
	10.130000	0.389630
	10.135000	0.264659
	10.140000	0.221905
	10.145000	0.346877
	10.150000	0.389630
	10.155000	0.271236
	10.160000	0.221905
	10.165000	0.346877
	10.170000	0.392919
	10.175000	0.274525
	10.180000	0.221905
	10.185000	0.346877
	10.190000	0.392919
	10.195000	0.267948
	10.200000	0.218617
	10.205000	0.350166
	10.210000	0.396208
	10.215000	0.264659
	10.220000	0.221905
	10.225000	0.346877
	10.230000	0.392919
	10.235000	0.261370
	10.240000	0.225194
	10.245000	0.346877
	10.250000	0.392919
	10.255000	0.267948
	10.260000	0.225194
	10.265000	0.346877
	10.270000	0.396208
	10.275000	0.267948
	10.280000	0.221905
	10.285000	0.346877
	10.290000	0.396208
	10.295000	0.267948
	10.300000	0.221905
	10.305000	0.350166
	10.310000	0.396208
	10.315000	0.267948
	10.320000	0.225194
	10.325000	0.346877
	10.330000	0.396208
	10.335000	0.267948
	10.340000	0.225194
	10.345000	0.350166
	10.350000	0.396208
	10.355000	0.267948
	10.360000	0.221905
	10.365000	0.346877
	10.370000	0.396208
	10.375000	0.264659
	10.380000	0.221905
	10.385000	0.346877
	10.390000	0.392919
	10.395000	0.271236
	10.400000	0.221905
	10.405000	0.350166
	10.410000	0.392919
	10.415000	0.267948
	10.420000	0.221905
	10.425000	0.350166
	10.430000	0.392919
	10.435000	0.264659
	10.440000	0.225194
	10.445000	0.346877
	10.450000	0.392919
	10.455000	0.271236
	10.460000	0.221905
	10.465000	0.350166
	10.470000	0.392919
	10.475000	0.267948
	10.480000	0.225194
	10.485000	0.346877
	10.490000	0.396208
	10.495000	0.264659
	10.500000	0.221905
	10.505000	0.346877
	10.510000	0.392919
	10.515000	0.264659
	10.520000	0.221905
	10.525000	0.346877
	10.530000	0.392919
	10.535000	0.267948
	10.540000	0.221905
	10.545000	0.346877
	10.550000	0.392919
	10.555000	0.264659
	10.560000	0.228483
	10.565000	0.350166
	10.570000	0.389630
	10.575000	0.264659
	10.580000	0.225194
	10.585000	0.343588
	10.590000	0.392919
	10.595000	0.267948
	10.600000	0.225194
	10.605000	0.346877
	10.610000	0.392919
	10.615000	0.267948
	10.620000	0.225194
	10.625000	0.350166
	10.630000	0.389630
	10.635000	0.264659
	10.640000	0.225194
	10.645000	0.346877
	10.650000	0.392919
	10.655000	0.267948
	10.660000	0.221905
	10.665000	0.350166
	10.670000	0.392919
	10.675000	0.264659
	10.680000	0.221905
	10.685000	0.346877
	10.690000	0.392919
	10.695000	0.264659
	10.700000	0.221905
	10.705000	0.350166
	10.710000	0.389630
	10.715000	0.264659
	10.720000	0.225194
	10.725000	0.346877
	10.730000	0.392919
	10.735000	0.264659
	10.740000	0.221905
	10.745000	0.353454
	10.750000	0.392919
	10.755000	0.267948
	10.760000	0.221905
	10.765000	0.346877
	10.770000	0.389630
	10.775000	0.261370
	10.780000	0.221905
	10.785000	0.346877
	10.790000	0.392919
	10.795000	0.267948
	10.800000	0.225194
	10.805000	0.343588
	10.810000	0.389630
	10.815000	0.264659
	10.820000	0.221905
	10.825000	0.346877
	10.830000	0.392919
	10.835000	0.267948
	10.840000	0.225194
	10.845000	0.350166
	10.850000	0.392919
	10.855000	0.264659
	10.860000	0.221905
	10.865000	0.346877
	10.870000	0.392919
	10.875000	0.267948
	10.880000	0.221905
	10.885000	0.350166
	10.890000	0.396208
	10.895000	0.264659
	10.900000	0.225194
	10.905000	0.346877
	10.910000	0.392919
	10.915000	0.267948
	10.920000	0.221905
	10.925000	0.350166
	10.930000	0.392919
	10.935000	0.267948
	10.940000	0.228483
	10.945000	0.350166
	10.950000	0.396208
	10.955000	0.267948
	10.960000	0.221905
	10.965000	0.353454
	10.970000	0.392919
	10.975000	0.267948
	10.980000	0.225194
	10.985000	0.350166
	10.990000	0.396208
	10.995000	0.267948
	11.000000	0.225194
	11.005000	0.346877
	11.010000	0.392919
	11.015000	0.267948
	11.020000	0.225194
	11.025000	0.346877
	11.030000	0.396208
	11.035000	0.267948
	11.040000	0.225194
	11.045000	0.350166
	11.050000	0.392919
	11.055000	0.267948
	11.060000	0.221905
	11.065000	0.350166
	11.070000	0.399496
	11.075000	0.267948
	11.080000	0.221905
	11.085000	0.350166
	11.090000	0.389630
	11.095000	0.267948
	11.100000	0.225194
	11.105000	0.343588
	11.110000	0.396208
	11.115000	0.264659
	11.120000	0.225194
	11.125000	0.350166
	11.130000	0.386342
	11.135000	0.264659
	11.140000	0.221905
	11.145000	0.343588
	11.150000	0.392919
	11.155000	0.264659
	11.160000	0.221905
	11.165000	0.346877
	11.170000	0.392919
	11.175000	0.264659
	11.180000	0.221905
	11.185000	0.343588
	11.190000	0.386342
	11.195000	0.267948
	11.200000	0.225194
	11.205000	0.343588
	11.210000	0.392919
	11.215000	0.264659
	11.220000	0.221905
	11.225000	0.346877
	11.230000	0.389630
	11.235000	0.267948
	11.240000	0.221905
	11.245000	0.346877
	11.250000	0.392919
	11.255000	0.261370
	11.260000	0.221905
	11.265000	0.346877
	11.270000	0.392919
	11.275000	0.267948
	11.280000	0.221905
	11.285000	0.346877
	11.290000	0.386342
	11.295000	0.261370
	11.300000	0.221905
	11.305000	0.346877
	11.310000	0.389630
	11.315000	0.264659
	11.320000	0.221905
	11.325000	0.343588
	11.330000	0.383053
	11.335000	0.267948
	11.340000	0.221905
	11.345000	0.350166
	11.350000	0.399496
	11.355000	0.267948
	11.360000	0.218617
	11.365000	0.343588
	11.370000	0.392919
	11.375000	0.264659
	11.380000	0.225194
	11.385000	0.343588
	11.390000	0.392919
	11.395000	0.264659
	11.400000	0.225194
	11.405000	0.346877
	11.410000	0.396208
	11.415000	0.267948
	11.420000	0.225194
	11.425000	0.346877
	11.430000	0.386342
	11.435000	0.261370
	11.440000	0.221905
	11.445000	0.346877
	11.450000	0.392919
	11.455000	0.261370
	11.460000	0.221905
	11.465000	0.343588
	11.470000	0.386342
	11.475000	0.264659
	11.480000	0.225194
	11.485000	0.346877
	11.490000	0.389630
	11.495000	0.261370
	11.500000	0.221905
	11.505000	0.346877
	11.510000	0.386342
	11.515000	0.261370
	11.520000	0.221905
	11.525000	0.343588
	11.530000	0.389630
	11.535000	0.261370
	11.540000	0.218617
	11.545000	0.346877
	11.550000	0.392919
	11.555000	0.264659
	11.560000	0.225194
	11.565000	0.346877
	11.570000	0.392919
	11.575000	0.264659
	11.580000	0.221905
	11.585000	0.346877
	11.590000	0.386342
	11.595000	0.261370
	11.600000	0.218617
	11.605000	0.346877
	11.610000	0.389630
	11.615000	0.261370
	11.620000	0.221905
	11.625000	0.346877
	11.630000	0.392919
	11.635000	0.264659
	11.640000	0.218617
	11.645000	0.343588
	11.650000	0.386342
	11.655000	0.261370
	11.660000	0.218617
	11.665000	0.346877
	11.670000	0.389630
	11.675000	0.261370
	11.680000	0.221905
	11.685000	0.343588
	11.690000	0.383053
	11.695000	0.264659
	11.700000	0.218617
	11.705000	0.346877
	11.710000	0.386342
	11.715000	0.261370
	11.720000	0.218617
	11.725000	0.343588
	11.730000	0.386342
	11.735000	0.261370
	11.740000	0.218617
	11.745000	0.346877
	11.750000	0.386342
	11.755000	0.258081
	11.760000	0.221905
	11.765000	0.340299
	11.770000	0.389630
	11.775000	0.261370
	11.780000	0.218617
	11.785000	0.343588
	11.790000	0.386342
	11.795000	0.264659
	11.800000	0.221905
	11.805000	0.343588
	11.810000	0.386342
	11.815000	0.261370
	11.820000	0.218617
	11.825000	0.343588
	11.830000	0.386342
	11.835000	0.258081
	11.840000	0.215328
	11.845000	0.340299
	11.850000	0.389630
	11.855000	0.258081
	11.860000	0.215328
	11.865000	0.340299
	11.870000	0.383053
	11.875000	0.261370
	11.880000	0.215328
	11.885000	0.343588
	11.890000	0.383053
	11.895000	0.254793
	11.900000	0.221905
	11.905000	0.340299
	11.910000	0.383053
	11.915000	0.258081
	11.920000	0.221905
	11.925000	0.340299
	11.930000	0.383053
	11.935000	0.264659
	11.940000	0.221905
	11.945000	0.346877
	11.950000	0.392919
	11.955000	0.271236
	11.960000	0.225194
	11.965000	0.353454
	11.970000	0.396208
	11.975000	0.274525
	11.980000	0.231772
	11.985000	0.356743
	11.990000	0.399496
	11.995000	0.271236
	12.000000	0.235060
	12.005000	0.356743
	12.010000	0.399496
	12.015000	0.274525
	12.020000	0.228483
	12.025000	0.360032
	12.030000	0.399496
	12.035000	0.271236
	12.040000	0.228483
	12.045000	0.353454
	12.050000	0.396208
	12.055000	0.271236
	12.060000	0.225194
	12.065000	0.353454
	12.070000	0.392919
	12.075000	0.267948
	12.080000	0.221905
	12.085000	0.346877
	12.090000	0.392919
	12.095000	0.261370
	12.100000	0.215328
	12.105000	0.337011
	12.110000	0.379764
	12.115000	0.254793
	12.120000	0.212039
	12.125000	0.337011
	12.130000	0.379764
	12.135000	0.248215
	12.140000	0.208751
	12.145000	0.340299
	12.150000	0.379764
	12.155000	0.251504
	12.160000	0.205462
	12.165000	0.337011
	12.170000	0.379764
	12.175000	0.248215
	12.180000	0.212039
	12.185000	0.333722
	12.190000	0.379764
	12.195000	0.258081
	12.200000	0.215328
	12.205000	0.337011
	12.210000	0.379764
	12.215000	0.251504
	12.220000	0.215328
	12.225000	0.340299
	12.230000	0.383053
	12.235000	0.254793
	12.240000	0.212039
	12.245000	0.340299
	12.250000	0.379764
	12.255000	0.248215
	12.260000	0.215328
	12.265000	0.337011
	12.270000	0.386342
	12.275000	0.254793
	12.280000	0.215328
	12.285000	0.343588
	12.290000	0.383053
	12.295000	0.258081
	12.300000	0.212039
	12.305000	0.340299
	12.310000	0.386342
	12.315000	0.258081
	12.320000	0.215328
	12.325000	0.337011
	12.330000	0.383053
	12.335000	0.254793
	12.340000	0.215328
	12.345000	0.343588
	12.350000	0.383053
	12.355000	0.258081
	12.360000	0.215328
	12.365000	0.340299
	12.370000	0.383053
	12.375000	0.258081
	12.380000	0.208751
	12.385000	0.343588
	12.390000	0.379764
	12.395000	0.258081
	12.400000	0.215328
	12.405000	0.343588
	12.410000	0.379764
	12.415000	0.254793
	12.420000	0.215328
	12.425000	0.343588
	12.430000	0.379764
	12.435000	0.258081
	12.440000	0.215328
	12.445000	0.343588
	12.450000	0.379764
	12.455000	0.251504
	12.460000	0.218617
	12.465000	0.350166
	12.470000	0.389630
	12.475000	0.261370
	12.480000	0.225194
	12.485000	0.356743
	12.490000	0.392919
	12.495000	0.274525
	12.500000	0.235060
	12.505000	0.363321
	12.510000	0.406074
	12.515000	0.281102
	12.520000	0.238349
	12.525000	0.366609
	12.530000	0.409363
	12.535000	0.284391
	12.540000	0.244927
	12.545000	0.373187
	12.550000	0.406074
	12.555000	0.287680
	12.560000	0.244927
	12.565000	0.369898
	12.570000	0.415940
	12.575000	0.284391
	12.580000	0.241638
	12.585000	0.369898
	12.590000	0.409363
	12.595000	0.284391
	12.600000	0.241638
	12.605000	0.369898
	12.610000	0.409363
	12.615000	0.277814
	12.620000	0.241638
	12.625000	0.363321
	12.630000	0.406074
	12.635000	0.284391
	12.640000	0.235060
	12.645000	0.360032
	12.650000	0.399496
	12.655000	0.274525
	12.660000	0.235060
	12.665000	0.363321
	12.670000	0.399496
	12.675000	0.271236
	12.680000	0.235060
	12.685000	0.360032
	12.690000	0.399496
	12.695000	0.271236
	12.700000	0.235060
	12.705000	0.353454
	12.710000	0.392919
	12.715000	0.261370
	12.720000	0.225194
	12.725000	0.353454
	12.730000	0.392919
	12.735000	0.261370
	12.740000	0.228483
	12.745000	0.346877
	12.750000	0.383053
	12.755000	0.261370
	12.760000	0.225194
	12.765000	0.350166
	12.770000	0.383053
	12.775000	0.264659
	12.780000	0.221905
	12.785000	0.346877
	12.790000	0.389630
	12.795000	0.258081
	12.800000	0.225194
	12.805000	0.350166
	12.810000	0.386342
	12.815000	0.258081
	12.820000	0.221905
	12.825000	0.343588
	12.830000	0.386342
	12.835000	0.258081
	12.840000	0.218617
	12.845000	0.346877
	12.850000	0.386342
	12.855000	0.258081
	12.860000	0.221905
	12.865000	0.346877
	12.870000	0.386342
	12.875000	0.258081
	12.880000	0.221905
	12.885000	0.346877
	12.890000	0.383053
	12.895000	0.258081
	12.900000	0.221905
	12.905000	0.350166
	12.910000	0.386342
	12.915000	0.258081
	12.920000	0.215328
	12.925000	0.346877
	12.930000	0.386342
	12.935000	0.258081
	12.940000	0.221905
	12.945000	0.346877
	12.950000	0.386342
	12.955000	0.261370
	12.960000	0.225194
	12.965000	0.350166
	12.970000	0.389630
	12.975000	0.258081
	12.980000	0.221905
	12.985000	0.350166
	12.990000	0.389630
	12.995000	0.261370
	13.000000	0.225194
	13.005000	0.350166
	13.010000	0.383053
	13.015000	0.261370
	13.020000	0.221905
	13.025000	0.343588
	13.030000	0.389630
	13.035000	0.261370
	13.040000	0.221905
	13.045000	0.350166
	13.050000	0.386342
	13.055000	0.261370
	13.060000	0.225194
	13.065000	0.346877
	13.070000	0.386342
	13.075000	0.258081
	13.080000	0.218617
	13.085000	0.343588
	13.090000	0.386342
	13.095000	0.254793
	13.100000	0.218617
	13.105000	0.340299
	13.110000	0.379764
	13.115000	0.254793
	13.120000	0.212039
	13.125000	0.343588
	13.130000	0.376475
	13.135000	0.244927
	13.140000	0.205462
	13.145000	0.337011
	13.150000	0.373187
	13.155000	0.238349
	13.160000	0.212039
	13.165000	0.333722
	13.170000	0.369898
	13.175000	0.244927
	13.180000	0.205462
	13.185000	0.330433
	13.190000	0.369898
	13.195000	0.238349
	13.200000	0.202173
	13.205000	0.330433
	13.210000	0.366609
	13.215000	0.238349
	13.220000	0.202173
	13.225000	0.330433
	13.230000	0.373187
	13.235000	0.241638
	13.240000	0.205462
	13.245000	0.333722
	13.250000	0.369898
	13.255000	0.241638
	13.260000	0.205462
	13.265000	0.337011
	13.270000	0.366609
	13.275000	0.244927
	13.280000	0.208751
	13.285000	0.330433
	13.290000	0.373187
	13.295000	0.244927
	13.300000	0.205462
	13.305000	0.340299
	13.310000	0.373187
	13.315000	0.248215
	13.320000	0.212039
	13.325000	0.337011
	13.330000	0.376475
	13.335000	0.244927
	13.340000	0.208751
	13.345000	0.337011
	13.350000	0.376475
	13.355000	0.248215
	13.360000	0.212039
	13.365000	0.340299
	13.370000	0.379764
	13.375000	0.248215
	13.380000	0.212039
	13.385000	0.337011
	13.390000	0.376475
	13.395000	0.251504
	13.400000	0.208751
	13.405000	0.340299
	13.410000	0.376475
	13.415000	0.248215
	13.420000	0.212039
	13.425000	0.340299
	13.430000	0.376475
	13.435000	0.248215
	13.440000	0.212039
	13.445000	0.340299
	13.450000	0.376475
	13.455000	0.248215
	13.460000	0.208751
	13.465000	0.343588
	13.470000	0.373187
	13.475000	0.244927
	13.480000	0.212039
	13.485000	0.337011
	13.490000	0.376475
	13.495000	0.248215
	13.500000	0.215328
	13.505000	0.343588
	13.510000	0.369898
	13.515000	0.251504
	13.520000	0.212039
	13.525000	0.340299
	13.530000	0.376475
	13.535000	0.248215
	13.540000	0.212039
	13.545000	0.333722
	13.550000	0.373187
	13.555000	0.251504
	13.560000	0.212039
	13.565000	0.340299
	13.570000	0.376475
	13.575000	0.248215
	13.580000	0.208751
	13.585000	0.343588
	13.590000	0.376475
	13.595000	0.251504
	13.600000	0.215328
	13.605000	0.340299
	13.610000	0.376475
	13.615000	0.248215
	13.620000	0.215328
	13.625000	0.340299
	13.630000	0.379764
	13.635000	0.248215
	13.640000	0.215328
	13.645000	0.346877
	13.650000	0.379764
	13.655000	0.248215
	13.660000	0.212039
	13.665000	0.340299
	13.670000	0.379764
	13.675000	0.248215
	13.680000	0.215328
	13.685000	0.343588
	13.690000	0.376475
	13.695000	0.248215
	13.700000	0.208751
	13.705000	0.343588
	13.710000	0.379764
	13.715000	0.248215
	13.720000	0.212039
	13.725000	0.340299
	13.730000	0.379764
	13.735000	0.244927
	13.740000	0.218617
	13.745000	0.340299
	13.750000	0.383053
	13.755000	0.251504
	13.760000	0.215328
	13.765000	0.340299
	13.770000	0.379764
	13.775000	0.251504
	13.780000	0.215328
	13.785000	0.346877
	13.790000	0.379764
	13.795000	0.248215
	13.800000	0.212039
	13.805000	0.340299
	13.810000	0.376475
	13.815000	0.248215
	13.820000	0.215328
	13.825000	0.340299
	13.830000	0.383053
	13.835000	0.244927
	13.840000	0.215328
	13.845000	0.343588
	13.850000	0.376475
	13.855000	0.251504
	13.860000	0.215328
	13.865000	0.343588
	13.870000	0.379764
	13.875000	0.251504
	13.880000	0.215328
	13.885000	0.343588
	13.890000	0.379764
	13.895000	0.248215
	13.900000	0.215328
	13.905000	0.343588
	13.910000	0.376475
	13.915000	0.251504
	13.920000	0.215328
	13.925000	0.340299
	13.930000	0.379764
	13.935000	0.251504
	13.940000	0.215328
	13.945000	0.343588
	13.950000	0.379764
	13.955000	0.251504
	13.960000	0.215328
	13.965000	0.340299
	13.970000	0.379764
	13.975000	0.244927
	13.980000	0.218617
	13.985000	0.343588
	13.990000	0.379764
	13.995000	0.251504
	14.000000	0.215328
	14.005000	0.343588
	14.010000	0.379764
	14.015000	0.244927
	14.020000	0.215328
	14.025000	0.343588
	14.030000	0.379764
	14.035000	0.248215
	14.040000	0.218617
	14.045000	0.346877
	14.050000	0.379764
	14.055000	0.244927
	14.060000	0.221905
	14.065000	0.343588
	14.070000	0.383053
	14.075000	0.251504
	14.080000	0.218617
	14.085000	0.343588
	14.090000	0.373187
	14.095000	0.248215
	14.100000	0.215328
	14.105000	0.343588
	14.110000	0.376475
	14.115000	0.248215
	14.120000	0.215328
	14.125000	0.340299
	14.130000	0.376475
	14.135000	0.244927
	14.140000	0.215328
	14.145000	0.343588
	14.150000	0.376475
	14.155000	0.248215
	14.160000	0.215328
	14.165000	0.343588
	14.170000	0.379764
	14.175000	0.244927
	14.180000	0.215328
	14.185000	0.343588
	14.190000	0.379764
	14.195000	0.244927
	14.200000	0.208751
	14.205000	0.343588
	14.210000	0.379764
	14.215000	0.248215
	14.220000	0.215328
	14.225000	0.340299
	14.230000	0.373187
	14.235000	0.244927
	14.240000	0.215328
	14.245000	0.343588
	14.250000	0.379764
	14.255000	0.248215
	14.260000	0.215328
	14.265000	0.343588
	14.270000	0.376475
	14.275000	0.248215
	14.280000	0.215328
	14.285000	0.343588
	14.290000	0.373187
	14.295000	0.244927
	14.300000	0.215328
	14.305000	0.343588
	14.310000	0.379764
	14.315000	0.248215
	14.320000	0.215328
	14.325000	0.346877
	14.330000	0.379764
	14.335000	0.244927
	14.340000	0.212039
	14.345000	0.340299
	14.350000	0.379764
	14.355000	0.244927
	14.360000	0.215328
	14.365000	0.346877
	14.370000	0.373187
	14.375000	0.248215
	14.380000	0.215328
	14.385000	0.346877
	14.390000	0.379764
	14.395000	0.248215
	14.400000	0.215328
	14.405000	0.343588
	14.410000	0.379764
	14.415000	0.248215
	14.420000	0.215328
	14.425000	0.343588
	14.430000	0.379764
	14.435000	0.244927
	14.440000	0.212039
	14.445000	0.343588
	14.450000	0.376475
	14.455000	0.248215
	14.460000	0.218617
	14.465000	0.343588
	14.470000	0.376475
	14.475000	0.248215
	14.480000	0.218617
	14.485000	0.346877
	14.490000	0.379764
	14.495000	0.248215
	14.500000	0.215328
	14.505000	0.346877
	14.510000	0.376475
	14.515000	0.244927
	14.520000	0.218617
	14.525000	0.340299
	14.530000	0.376475
	14.535000	0.244927
	14.540000	0.218617
	14.545000	0.343588
	14.550000	0.379764
	14.555000	0.244927
	14.560000	0.218617
	14.565000	0.350166
	14.570000	0.373187
	14.575000	0.248215
	14.580000	0.212039
	14.585000	0.346877
	14.590000	0.379764
	14.595000	0.248215
	14.600000	0.218617
	14.605000	0.343588
	14.610000	0.369898
	14.615000	0.248215
	14.620000	0.221905
	14.625000	0.343588
	14.630000	0.376475
	14.635000	0.244927
	14.640000	0.212039
	14.645000	0.343588
	14.650000	0.373187
	14.655000	0.241638
	14.660000	0.215328
	14.665000	0.343588
	14.670000	0.369898
	14.675000	0.248215
	14.680000	0.212039
	14.685000	0.340299
	14.690000	0.376475
	14.695000	0.244927
	14.700000	0.212039
	14.705000	0.340299
	14.710000	0.376475
	14.715000	0.244927
	14.720000	0.215328
	14.725000	0.343588
	14.730000	0.373187
	14.735000	0.241638
	14.740000	0.212039
	14.745000	0.343588
	14.750000	0.376475
	14.755000	0.248215
	14.760000	0.215328
	14.765000	0.346877
	14.770000	0.373187
	14.775000	0.244927
	14.780000	0.215328
	14.785000	0.343588
	14.790000	0.376475
	14.795000	0.244927
	14.800000	0.215328
	14.805000	0.343588
	14.810000	0.373187
	14.815000	0.238349
	14.820000	0.215328
	14.825000	0.343588
	14.830000	0.373187
	14.835000	0.241638
	14.840000	0.215328
	14.845000	0.343588
	14.850000	0.376475
	14.855000	0.241638
	14.860000	0.215328
	14.865000	0.343588
	14.870000	0.376475
	14.875000	0.241638
	14.880000	0.215328
	14.885000	0.346877
	14.890000	0.376475
	14.895000	0.244927
	14.900000	0.212039
	14.905000	0.346877
	14.910000	0.373187
	14.915000	0.244927
	14.920000	0.221905
	14.925000	0.346877
	14.930000	0.373187
	14.935000	0.241638
	14.940000	0.212039
	14.945000	0.343588
	14.950000	0.376475
	14.955000	0.241638
	14.960000	0.215328
	14.965000	0.340299
	14.970000	0.369898
	14.975000	0.244927
	14.980000	0.212039
	14.985000	0.350166
	14.990000	0.369898
	14.995000	0.241638
	15.000000	0.215328
	15.005000	0.346877
	15.010000	0.373187
	15.015000	0.241638
	15.020000	0.215328
	15.025000	0.343588
	15.030000	0.379764
	15.035000	0.241638
	15.040000	0.215328
	15.045000	0.343588
	15.050000	0.373187
	15.055000	0.244927
	15.060000	0.218617
	15.065000	0.343588
	15.070000	0.373187
	15.075000	0.241638
	15.080000	0.215328
	15.085000	0.346877
	15.090000	0.376475
	15.095000	0.251504
	15.100000	0.218617
	15.105000	0.350166
	15.110000	0.376475
	15.115000	0.241638
	15.120000	0.215328
	15.125000	0.346877
	15.130000	0.376475
	15.135000	0.244927
	15.140000	0.215328
	15.145000	0.346877
	15.150000	0.369898
	15.155000	0.241638
	15.160000	0.215328
	15.165000	0.346877
	15.170000	0.369898
	15.175000	0.244927
	15.180000	0.218617
	15.185000	0.343588
	15.190000	0.376475
	15.195000	0.244927
	15.200000	0.215328
	15.205000	0.346877
	15.210000	0.376475
	15.215000	0.244927
	15.220000	0.212039
	15.225000	0.343588
	15.230000	0.373187
	15.235000	0.241638
	15.240000	0.218617
	15.245000	0.346877
	15.250000	0.373187
	15.255000	0.238349
	15.260000	0.212039
	15.265000	0.343588
	15.270000	0.373187
	15.275000	0.241638
	15.280000	0.218617
	15.285000	0.346877
	15.290000	0.369898
	15.295000	0.241638
	15.300000	0.215328
	15.305000	0.343588
	15.310000	0.373187
	15.315000	0.241638
	15.320000	0.215328
	15.325000	0.346877
	15.330000	0.366609
	15.335000	0.238349
	15.340000	0.215328
	15.345000	0.346877
	15.350000	0.373187
	15.355000	0.241638
	15.360000	0.215328
	15.365000	0.346877
	15.370000	0.369898
	15.375000	0.241638
	15.380000	0.218617
	15.385000	0.343588
	15.390000	0.376475
	15.395000	0.241638
	15.400000	0.221905
	15.405000	0.346877
	15.410000	0.376475
	15.415000	0.238349
	15.420000	0.212039
	15.425000	0.346877
	15.430000	0.366609
	15.435000	0.241638
	15.440000	0.218617
	15.445000	0.346877
	15.450000	0.373187
	15.455000	0.241638
	15.460000	0.218617
	15.465000	0.346877
	15.470000	0.373187
	15.475000	0.238349
	15.480000	0.215328
	15.485000	0.343588
	15.490000	0.373187
	15.495000	0.241638
	15.500000	0.215328
	15.505000	0.343588
	15.510000	0.369898
	15.515000	0.244927
	15.520000	0.218617
	15.525000	0.346877
	15.530000	0.373187
	15.535000	0.241638
	15.540000	0.218617
	15.545000	0.346877
	15.550000	0.373187
	15.555000	0.241638
	15.560000	0.221905
	15.565000	0.346877
	15.570000	0.373187
	15.575000	0.241638
	15.580000	0.215328
	15.585000	0.350166
	15.590000	0.369898
	15.595000	0.241638
	15.600000	0.218617
	15.605000	0.350166
	15.610000	0.373187
	15.615000	0.244927
	15.620000	0.218617
	15.625000	0.346877
	15.630000	0.369898
	15.635000	0.241638
	15.640000	0.215328
	15.645000	0.343588
	15.650000	0.369898
	15.655000	0.238349
	15.660000	0.218617
	15.665000	0.350166
	15.670000	0.369898
	15.675000	0.241638
	15.680000	0.215328
	15.685000	0.346877
	15.690000	0.373187
	15.695000	0.241638
	15.700000	0.215328
	15.705000	0.346877
	15.710000	0.373187
	15.715000	0.241638
	15.720000	0.215328
	15.725000	0.346877
	15.730000	0.369898
	15.735000	0.241638
	15.740000	0.212039
	15.745000	0.346877
	15.750000	0.369898
	15.755000	0.238349
	15.760000	0.212039
	15.765000	0.346877
	15.770000	0.373187
	15.775000	0.238349
	15.780000	0.215328
	15.785000	0.346877
	15.790000	0.373187
	15.795000	0.238349
	15.800000	0.215328
	15.805000	0.346877
	15.810000	0.373187
	15.815000	0.238349
	15.820000	0.215328
	15.825000	0.343588
	15.830000	0.369898
	15.835000	0.238349
	15.840000	0.221905
	15.845000	0.343588
	15.850000	0.369898
	15.855000	0.241638
	15.860000	0.218617
	15.865000	0.346877
	15.870000	0.369898
	15.875000	0.241638
	15.880000	0.215328
	15.885000	0.346877
	15.890000	0.369898
	15.895000	0.238349
	15.900000	0.215328
	15.905000	0.350166
	15.910000	0.369898
	15.915000	0.238349
	15.920000	0.215328
	15.925000	0.350166
	15.930000	0.369898
	15.935000	0.235060
	15.940000	0.215328
	15.945000	0.346877
	15.950000	0.369898
	15.955000	0.238349
	15.960000	0.212039
	15.965000	0.346877
	15.970000	0.369898
	15.975000	0.238349
	15.980000	0.215328
	15.985000	0.346877
	15.990000	0.366609
	15.995000	0.238349
	16.000000	0.215328
	16.005000	0.350166
	16.010000	0.366609
	16.015000	0.238349
	16.020000	0.218617
	16.025000	0.346877
	16.030000	0.373187
	16.035000	0.241638
	16.040000	0.215328
	16.045000	0.350166
	16.050000	0.369898
	16.055000	0.235060
	16.060000	0.212039
	16.065000	0.346877
	16.070000	0.366609
	16.075000	0.238349
	16.080000	0.215328
	16.085000	0.346877
	16.090000	0.369898
	16.095000	0.235060
	16.100000	0.215328
	16.105000	0.346877
	16.110000	0.369898
	16.115000	0.238349
	16.120000	0.215328
	16.125000	0.343588
	16.130000	0.369898
	16.135000	0.235060
	16.140000	0.212039
	16.145000	0.350166
	16.150000	0.369898
	16.155000	0.235060
	16.160000	0.215328
	16.165000	0.340299
	16.170000	0.366609
	16.175000	0.238349
	16.180000	0.218617
	16.185000	0.346877
	16.190000	0.369898
	16.195000	0.235060
	16.200000	0.212039
	16.205000	0.350166
	16.210000	0.366609
	16.215000	0.238349
	16.220000	0.215328
	16.225000	0.346877
	16.230000	0.369898
	16.235000	0.238349
	16.240000	0.215328
	16.245000	0.350166
	16.250000	0.369898
	16.255000	0.235060
	16.260000	0.215328
	16.265000	0.346877
	16.270000	0.366609
	16.275000	0.235060
	16.280000	0.215328
	16.285000	0.346877
	16.290000	0.366609
	16.295000	0.235060
	16.300000	0.208751
	16.305000	0.346877
	16.310000	0.369898
	16.315000	0.231772
	16.320000	0.215328
	16.325000	0.346877
	16.330000	0.366609
	16.335000	0.231772
	16.340000	0.212039
	16.345000	0.346877
	16.350000	0.366609
	16.355000	0.231772
	16.360000	0.218617
	16.365000	0.346877
	16.370000	0.369898
	16.375000	0.231772
	16.380000	0.212039
	16.385000	0.340299
	16.390000	0.363321
	16.395000	0.231772
	16.400000	0.208751
	16.405000	0.343588
	16.410000	0.366609
	16.415000	0.231772
	16.420000	0.215328
	16.425000	0.343588
	16.430000	0.363321
	16.435000	0.225194
	16.440000	0.212039
	16.445000	0.340299
	16.450000	0.366609
	16.455000	0.228483
	16.460000	0.205462
	16.465000	0.343588
	16.470000	0.366609
	16.475000	0.228483
	16.480000	0.215328
	16.485000	0.346877
	16.490000	0.363321
	16.495000	0.231772
	16.500000	0.208751
	16.505000	0.343588
	16.510000	0.366609
	16.515000	0.231772
	16.520000	0.218617
	16.525000	0.343588
	16.530000	0.360032
	16.535000	0.231772
	16.540000	0.212039
	16.545000	0.346877
	16.550000	0.363321
	16.555000	0.231772
	16.560000	0.212039
	16.565000	0.346877
	16.570000	0.366609
	16.575000	0.231772
	16.580000	0.208751
	16.585000	0.346877
	16.590000	0.363321
	16.595000	0.228483
	16.600000	0.212039
	16.605000	0.343588
	16.610000	0.366609
	16.615000	0.231772
	16.620000	0.212039
	16.625000	0.353454
	16.630000	0.363321
	16.635000	0.228483
	16.640000	0.208751
	16.645000	0.343588
	16.650000	0.366609
	16.655000	0.231772
	16.660000	0.212039
	16.665000	0.343588
	16.670000	0.363321
	16.675000	0.231772
	16.680000	0.212039
	16.685000	0.343588
	16.690000	0.363321
	16.695000	0.225194
	16.700000	0.215328
	16.705000	0.343588
	16.710000	0.360032
	16.715000	0.235060
	16.720000	0.208751
	16.725000	0.343588
	16.730000	0.363321
	16.735000	0.228483
	16.740000	0.212039
	16.745000	0.340299
	16.750000	0.360032
	16.755000	0.228483
	16.760000	0.208751
	16.765000	0.343588
	16.770000	0.363321
	16.775000	0.231772
	16.780000	0.215328
	16.785000	0.346877
	16.790000	0.366609
	16.795000	0.231772
	16.800000	0.215328
	16.805000	0.350166
	16.810000	0.366609
	16.815000	0.231772
	16.820000	0.218617
	16.825000	0.350166
	16.830000	0.366609
	16.835000	0.235060
	16.840000	0.221905
	16.845000	0.353454
	16.850000	0.369898
	16.855000	0.241638
	16.860000	0.225194
	16.865000	0.353454
	16.870000	0.369898
	16.875000	0.241638
	16.880000	0.228483
	16.885000	0.356743
	16.890000	0.379764
	16.895000	0.244927
	16.900000	0.225194
	16.905000	0.356743
	16.910000	0.373187
	16.915000	0.238349
	16.920000	0.225194
	16.925000	0.360032
	16.930000	0.373187
	16.935000	0.241638
	16.940000	0.221905
	16.945000	0.360032
	16.950000	0.366609
	16.955000	0.241638
	16.960000	0.225194
	16.965000	0.360032
	16.970000	0.369898
	16.975000	0.238349
	16.980000	0.225194
	16.985000	0.353454
	16.990000	0.373187
	16.995000	0.235060
	17.000000	0.221905
	17.005000	0.346877
	17.010000	0.369898
	17.015000	0.231772
	17.020000	0.212039
	17.025000	0.343588
	17.030000	0.360032
	17.035000	0.225194
	17.040000	0.212039
	17.045000	0.337011
	17.050000	0.356743
	17.055000	0.225194
	17.060000	0.205462
	17.065000	0.333722
	17.070000	0.350166
	17.075000	0.221905
	17.080000	0.208751
	17.085000	0.337011
	17.090000	0.350166
	17.095000	0.221905
	17.100000	0.202173
	17.105000	0.340299
	17.110000	0.356743
	17.115000	0.221905
	17.120000	0.208751
	17.125000	0.340299
	17.130000	0.360032
	17.135000	0.221905
	17.140000	0.208751
	17.145000	0.343588
	17.150000	0.356743
	17.155000	0.221905
	17.160000	0.208751
	17.165000	0.340299
	17.170000	0.356743
	17.175000	0.221905
	17.180000	0.208751
	17.185000	0.340299
	17.190000	0.360032
	17.195000	0.221905
	17.200000	0.208751
	17.205000	0.343588
	17.210000	0.356743
	17.215000	0.225194
	17.220000	0.208751
	17.225000	0.343588
	17.230000	0.360032
	17.235000	0.225194
	17.240000	0.208751
	17.245000	0.343588
	17.250000	0.356743
	17.255000	0.228483
	17.260000	0.215328
	17.265000	0.350166
	17.270000	0.366609
	17.275000	0.241638
	17.280000	0.225194
	17.285000	0.363321
	17.290000	0.383053
	17.295000	0.251504
	17.300000	0.235060
	17.305000	0.376475
	17.310000	0.389630
	17.315000	0.251504
	17.320000	0.235060
	17.325000	0.373187
	17.330000	0.389630
	17.335000	0.251504
	17.340000	0.241638
	17.345000	0.366609
	17.350000	0.389630
	17.355000	0.251504
	17.360000	0.238349
	17.365000	0.369898
	17.370000	0.383053
	17.375000	0.251504
	17.380000	0.238349
	17.385000	0.366609
	17.390000	0.379764
	17.395000	0.244927
	17.400000	0.235060
	17.405000	0.360032
	17.410000	0.376475
	17.415000	0.244927
	17.420000	0.228483
	17.425000	0.360032
	17.430000	0.376475
	17.435000	0.238349
	17.440000	0.225194
	17.445000	0.356743
	17.450000	0.369898
	17.455000	0.235060
	17.460000	0.221905
	17.465000	0.353454
	17.470000	0.369898
	17.475000	0.231772
	17.480000	0.218617
	17.485000	0.360032
	17.490000	0.363321
	17.495000	0.231772
	17.500000	0.218617
	17.505000	0.346877
	17.510000	0.366609
	17.515000	0.231772
	17.520000	0.215328
	17.525000	0.350166
	17.530000	0.363321
	17.535000	0.225194
	17.540000	0.218617
	17.545000	0.350166
	17.550000	0.363321
	17.555000	0.231772
	17.560000	0.221905
	17.565000	0.350166
	17.570000	0.366609
	17.575000	0.228483
	17.580000	0.215328
	17.585000	0.350166
	17.590000	0.363321
	17.595000	0.225194
	17.600000	0.215328
	17.605000	0.346877
	17.610000	0.366609
	17.615000	0.231772
	17.620000	0.215328
	17.625000	0.353454
	17.630000	0.360032
	17.635000	0.228483
	17.640000	0.218617
	17.645000	0.350166
	17.650000	0.360032
	17.655000	0.228483
	17.660000	0.218617
	17.665000	0.350166
	17.670000	0.363321
	17.675000	0.231772
	17.680000	0.215328
	17.685000	0.346877
	17.690000	0.360032
	17.695000	0.235060
	17.700000	0.218617
	17.705000	0.350166
	17.710000	0.363321
	17.715000	0.231772
	17.720000	0.221905
	17.725000	0.353454
	17.730000	0.366609
	17.735000	0.231772
	17.740000	0.221905
	17.745000	0.353454
	17.750000	0.369898
	17.755000	0.235060
	17.760000	0.218617
	17.765000	0.356743
	17.770000	0.373187
	17.775000	0.235060
	17.780000	0.225194
	17.785000	0.360032
	17.790000	0.369898
	17.795000	0.235060
	17.800000	0.225194
	17.805000	0.360032
	17.810000	0.369898
	17.815000	0.235060
	17.820000	0.218617
	17.825000	0.353454
	17.830000	0.366609
	17.835000	0.235060
	17.840000	0.221905
	17.845000	0.356743
	17.850000	0.366609
	17.855000	0.235060
	17.860000	0.225194
	17.865000	0.350166
	17.870000	0.363321
	17.875000	0.225194
	17.880000	0.215328
	17.885000	0.350166
	17.890000	0.363321
	17.895000	0.228483
	17.900000	0.215328
	17.905000	0.350166
	17.910000	0.360032
	17.915000	0.225194
	17.920000	0.215328
	17.925000	0.346877
	17.930000	0.360032
	17.935000	0.228483
	17.940000	0.212039
	17.945000	0.343588
	17.950000	0.353454
	17.955000	0.215328
	17.960000	0.202173
	17.965000	0.337011
	17.970000	0.350166
	17.975000	0.218617
	17.980000	0.198884
	17.985000	0.333722
	17.990000	0.346877
	17.995000	0.215328
	18.000000	0.198884
	18.005000	0.330433
	18.010000	0.343588
	18.015000	0.215328
	18.020000	0.202173
	18.025000	0.333722
	18.030000	0.346877
	18.035000	0.208751
	18.040000	0.198884
	18.045000	0.333722
	18.050000	0.346877
	18.055000	0.212039
	18.060000	0.205462
	18.065000	0.333722
	18.070000	0.346877
	18.075000	0.215328
	18.080000	0.202173
	18.085000	0.333722
	18.090000	0.346877
	18.095000	0.212039
	18.100000	0.205462
	18.105000	0.333722
	18.110000	0.350166
	18.115000	0.208751
	18.120000	0.205462
	18.125000	0.337011
	18.130000	0.346877
	18.135000	0.215328
	18.140000	0.202173
	18.145000	0.337011
	18.150000	0.350166
	18.155000	0.212039
	18.160000	0.205462
	18.165000	0.340299
	18.170000	0.353454
	18.175000	0.218617
	18.180000	0.205462
	18.185000	0.340299
	18.190000	0.350166
	18.195000	0.215328
	18.200000	0.205462
	18.205000	0.340299
	18.210000	0.350166
	18.215000	0.215328
	18.220000	0.208751
	18.225000	0.337011
	18.230000	0.353454
	18.235000	0.218617
	18.240000	0.208751
	18.245000	0.340299
	18.250000	0.353454
	18.255000	0.212039
	18.260000	0.205462
	18.265000	0.340299
	18.270000	0.353454
	18.275000	0.218617
	18.280000	0.208751
	18.285000	0.343588
	18.290000	0.353454
	18.295000	0.212039
	18.300000	0.208751
	18.305000	0.340299
	18.310000	0.350166
	18.315000	0.218617
	18.320000	0.208751
	18.325000	0.340299
	18.330000	0.350166
	18.335000	0.218617
	18.340000	0.208751
	18.345000	0.340299
	18.350000	0.346877
	18.355000	0.218617
	18.360000	0.205462
	18.365000	0.340299
	18.370000	0.353454
	18.375000	0.215328
	18.380000	0.208751
	18.385000	0.346877
	18.390000	0.353454
	18.395000	0.215328
	18.400000	0.212039
	18.405000	0.343588
	18.410000	0.350166
	18.415000	0.215328
	18.420000	0.208751
	18.425000	0.343588
	18.430000	0.353454
	18.435000	0.215328
	18.440000	0.208751
	18.445000	0.343588
	18.450000	0.353454
	18.455000	0.215328
	18.460000	0.208751
	18.465000	0.343588
	18.470000	0.350166
	18.475000	0.215328
	18.480000	0.205462
	18.485000	0.343588
	18.490000	0.350166
	18.495000	0.218617
	18.500000	0.208751
	18.505000	0.340299
	18.510000	0.353454
	18.515000	0.218617
	18.520000	0.205462
	18.525000	0.343588
	18.530000	0.353454
	18.535000	0.215328
	18.540000	0.205462
	18.545000	0.340299
	18.550000	0.350166
	18.555000	0.218617
	18.560000	0.208751
	18.565000	0.343588
	18.570000	0.350166
	18.575000	0.215328
	18.580000	0.212039
	18.585000	0.343588
	18.590000	0.353454
	18.595000	0.221905
	18.600000	0.215328
	18.605000	0.343588
	18.610000	0.353454
	18.615000	0.221905
	18.620000	0.212039
	18.625000	0.343588
	18.630000	0.360032
	18.635000	0.218617
	18.640000	0.208751
	18.645000	0.340299
	18.650000	0.350166
	18.655000	0.218617
	18.660000	0.208751
	18.665000	0.350166
	18.670000	0.356743
	18.675000	0.215328
	18.680000	0.208751
	18.685000	0.343588
	18.690000	0.350166
	18.695000	0.218617
	18.700000	0.212039
	18.705000	0.346877
	18.710000	0.356743
	18.715000	0.221905
	18.720000	0.212039
	18.725000	0.346877
	18.730000	0.356743
	18.735000	0.221905
	18.740000	0.215328
	18.745000	0.343588
	18.750000	0.353454
	18.755000	0.218617
	18.760000	0.208751
	18.765000	0.346877
	18.770000	0.353454
	18.775000	0.215328
	18.780000	0.212039
	18.785000	0.343588
	18.790000	0.353454
	18.795000	0.221905
	18.800000	0.215328
	18.805000	0.343588
	18.810000	0.356743
	18.815000	0.218617
	18.820000	0.212039
	18.825000	0.346877
	18.830000	0.353454
	18.835000	0.218617
	18.840000	0.212039
	18.845000	0.346877
	18.850000	0.350166
	18.855000	0.218617
	18.860000	0.215328
	18.865000	0.343588
	18.870000	0.353454
	18.875000	0.221905
	18.880000	0.208751
	18.885000	0.343588
	18.890000	0.350166
	18.895000	0.221905
	18.900000	0.208751
	18.905000	0.343588
	18.910000	0.356743
	18.915000	0.215328
	18.920000	0.212039
	18.925000	0.343588
	18.930000	0.350166
	18.935000	0.218617
	18.940000	0.215328
	18.945000	0.346877
	18.950000	0.350166
	18.955000	0.218617
	18.960000	0.208751
	18.965000	0.343588
	18.970000	0.353454
	18.975000	0.212039
	18.980000	0.212039
	18.985000	0.343588
	18.990000	0.353454
	18.995000	0.218617
	19.000000	0.212039
	19.005000	0.343588
	19.010000	0.350166
	19.015000	0.221905
	19.020000	0.215328
	19.025000	0.346877
	19.030000	0.350166
	19.035000	0.221905
	19.040000	0.215328
	19.045000	0.343588
	19.050000	0.353454
	19.055000	0.212039
	19.060000	0.212039
	19.065000	0.343588
	19.070000	0.356743
	19.075000	0.218617
	19.080000	0.208751
	19.085000	0.346877
	19.090000	0.350166
	19.095000	0.218617
	19.100000	0.215328
	19.105000	0.343588
	19.110000	0.350166
	19.115000	0.215328
	19.120000	0.208751
	19.125000	0.343588
	19.130000	0.350166
	19.135000	0.215328
	19.140000	0.212039
	19.145000	0.346877
	19.150000	0.346877
	19.155000	0.215328
	19.160000	0.212039
	19.165000	0.340299
	19.170000	0.346877
	19.175000	0.215328
	19.180000	0.212039
	19.185000	0.337011
	19.190000	0.346877
	19.195000	0.215328
	19.200000	0.212039
	19.205000	0.343588
	19.210000	0.353454
	19.215000	0.215328
	19.220000	0.205462
	19.225000	0.340299
	19.230000	0.346877
	19.235000	0.215328
	19.240000	0.212039
	19.245000	0.340299
	19.250000	0.346877
	19.255000	0.215328
	19.260000	0.208751
	19.265000	0.340299
	19.270000	0.346877
	19.275000	0.218617
	19.280000	0.212039
	19.285000	0.340299
	19.290000	0.346877
	19.295000	0.215328
	19.300000	0.212039
	19.305000	0.346877
	19.310000	0.353454
	19.315000	0.212039
	19.320000	0.212039
	19.325000	0.340299
	19.330000	0.343588
	19.335000	0.215328
	19.340000	0.208751
	19.345000	0.340299
	19.350000	0.346877
	19.355000	0.215328
	19.360000	0.208751
	19.365000	0.340299
	19.370000	0.346877
	19.375000	0.215328
	19.380000	0.208751
	19.385000	0.343588
	19.390000	0.343588
	19.395000	0.212039
	19.400000	0.208751
	19.405000	0.340299
	19.410000	0.346877
	19.415000	0.212039
	19.420000	0.212039
	19.425000	0.340299
	19.430000	0.346877
	19.435000	0.212039
	19.440000	0.208751
	19.445000	0.343588
	19.450000	0.346877
	19.455000	0.208751
	19.460000	0.208751
	19.465000	0.340299
	19.470000	0.350166
	19.475000	0.215328
	19.480000	0.208751
	19.485000	0.337011
	19.490000	0.346877
	19.495000	0.215328
	19.500000	0.208751
	19.505000	0.343588
	19.510000	0.343588
	19.515000	0.215328
	19.520000	0.208751
	19.525000	0.340299
	19.530000	0.350166
	19.535000	0.215328
	19.540000	0.208751
	19.545000	0.343588
	19.550000	0.350166
	19.555000	0.208751
	19.560000	0.212039
	19.565000	0.340299
	19.570000	0.346877
	19.575000	0.215328
	19.580000	0.208751
	19.585000	0.340299
	19.590000	0.350166
	19.595000	0.212039
	19.600000	0.208751
	19.605000	0.340299
	19.610000	0.346877
	19.615000	0.212039
	19.620000	0.208751
	19.625000	0.340299
	19.630000	0.346877
	19.635000	0.215328
	19.640000	0.208751
	19.645000	0.343588
	19.650000	0.353454
	19.655000	0.215328
	19.660000	0.212039
	19.665000	0.343588
	19.670000	0.350166
	19.675000	0.212039
	19.680000	0.208751
	19.685000	0.346877
	19.690000	0.346877
	19.695000	0.212039
	19.700000	0.218617
	19.705000	0.340299
	19.710000	0.350166
	19.715000	0.212039
	19.720000	0.208751
	19.725000	0.343588
	19.730000	0.346877
	19.735000	0.215328
	19.740000	0.208751
	19.745000	0.340299
	19.750000	0.346877
	19.755000	0.212039
	19.760000	0.208751
	19.765000	0.340299
	19.770000	0.350166
	19.775000	0.212039
	19.780000	0.212039
	19.785000	0.340299
	19.790000	0.343588
	19.795000	0.208751
	19.800000	0.212039
	19.805000	0.340299
	19.810000	0.346877
	19.815000	0.208751
	19.820000	0.212039
	19.825000	0.340299
	19.830000	0.343588
	19.835000	0.208751
	19.840000	0.205462
	19.845000	0.343588
	19.850000	0.350166
	19.855000	0.212039
	19.860000	0.208751
	19.865000	0.343588
	19.870000	0.346877
	19.875000	0.215328
	19.880000	0.208751
	19.885000	0.343588
	19.890000	0.346877
	19.895000	0.208751
	19.900000	0.212039
	19.905000	0.337011
	19.910000	0.343588
	19.915000	0.215328
	19.920000	0.208751
	19.925000	0.340299
	19.930000	0.346877
	19.935000	0.208751
	19.940000	0.205462
	19.945000	0.340299
	19.950000	0.343588
	19.955000	0.212039
	19.960000	0.205462
	19.965000	0.340299
	19.970000	0.343588
	19.975000	0.215328
	19.980000	0.208751
	19.985000	0.340299
	19.990000	0.343588
	19.995000	0.208751
	20.000000	0.205462
	20.005000	0.343588
	20.010000	0.343588
	20.015000	0.215328
	20.020000	0.202173
	20.025000	0.340299
	20.030000	0.343588
	20.035000	0.215328
	20.040000	0.205462
	20.045000	0.340299
	20.050000	0.346877
	20.055000	0.208751
	20.060000	0.208751
	20.065000	0.340299
	20.070000	0.350166
	20.075000	0.215328
	20.080000	0.208751
	20.085000	0.340299
	20.090000	0.343588
	20.095000	0.212039
	20.100000	0.208751
	20.105000	0.337011
	20.110000	0.343588
	20.115000	0.212039
	20.120000	0.208751
	20.125000	0.343588
	20.130000	0.346877
	20.135000	0.212039
	20.140000	0.208751
	20.145000	0.340299
	20.150000	0.343588
	20.155000	0.212039
	20.160000	0.205462
	20.165000	0.337011
	20.170000	0.343588
	20.175000	0.208751
	20.180000	0.208751
	20.185000	0.340299
	20.190000	0.343588
	20.195000	0.212039
	20.200000	0.212039
	20.205000	0.343588
	20.210000	0.346877
	20.215000	0.212039
	20.220000	0.208751
	20.225000	0.340299
	20.230000	0.346877
	20.235000	0.212039
	20.240000	0.208751
	20.245000	0.343588
	20.250000	0.346877
	20.255000	0.212039
	20.260000	0.208751
	20.265000	0.340299
	20.270000	0.346877
	20.275000	0.215328
	20.280000	0.208751
	20.285000	0.343588
	20.290000	0.343588
	20.295000	0.212039
	20.300000	0.208751
	20.305000	0.340299
	20.310000	0.343588
	20.315000	0.212039
	20.320000	0.205462
	20.325000	0.340299
	20.330000	0.343588
	20.335000	0.212039
	20.340000	0.208751
	20.345000	0.340299
	20.350000	0.343588
	20.355000	0.208751
	20.360000	0.208751
	20.365000	0.340299
	20.370000	0.343588
	20.375000	0.212039
	20.380000	0.208751
	20.385000	0.343588
	20.390000	0.346877
	20.395000	0.212039
	20.400000	0.208751
	20.405000	0.343588
	20.410000	0.346877
	20.415000	0.205462
	20.420000	0.208751
	20.425000	0.340299
	20.430000	0.346877
	20.435000	0.212039
	20.440000	0.205462
	20.445000	0.340299
	20.450000	0.343588
	20.455000	0.212039
	20.460000	0.208751
	20.465000	0.340299
	20.470000	0.346877
	20.475000	0.212039
	20.480000	0.208751
	20.485000	0.340299
	20.490000	0.343588
	20.495000	0.208751
	20.500000	0.205462
	20.505000	0.340299
	20.510000	0.340299
	20.515000	0.212039
	20.520000	0.208751
	20.525000	0.343588
	20.530000	0.340299
	20.535000	0.208751
	20.540000	0.208751
	20.545000	0.337011
	20.550000	0.343588
	20.555000	0.208751
	20.560000	0.208751
	20.565000	0.343588
	20.570000	0.343588
	20.575000	0.212039
	20.580000	0.205462
	20.585000	0.340299
	20.590000	0.346877
	20.595000	0.208751
	20.600000	0.205462
	20.605000	0.340299
	20.610000	0.343588
	20.615000	0.208751
	20.620000	0.205462
	20.625000	0.343588
	20.630000	0.343588
	20.635000	0.212039
	20.640000	0.208751
	20.645000	0.340299
	20.650000	0.337011
	20.655000	0.212039
	20.660000	0.208751
	20.665000	0.346877
	20.670000	0.340299
	20.675000	0.215328
	20.680000	0.212039
	20.685000	0.340299
	20.690000	0.346877
	20.695000	0.208751
	20.700000	0.202173
	20.705000	0.340299
	20.710000	0.340299
	20.715000	0.208751
	20.720000	0.208751
	20.725000	0.340299
	20.730000	0.343588
	20.735000	0.208751
	20.740000	0.208751
	20.745000	0.337011
	20.750000	0.340299
	20.755000	0.208751
	20.760000	0.208751
	20.765000	0.343588
	20.770000	0.343588
	20.775000	0.208751
	20.780000	0.208751
	20.785000	0.340299
	20.790000	0.343588
	20.795000	0.212039
	20.800000	0.208751
	20.805000	0.343588
	20.810000	0.340299
	20.815000	0.205462
	20.820000	0.205462
	20.825000	0.343588
	20.830000	0.340299
	20.835000	0.208751
	20.840000	0.208751
	20.845000	0.340299
	20.850000	0.340299
	20.855000	0.205462
	20.860000	0.208751
	20.865000	0.343588
	20.870000	0.340299
	20.875000	0.208751
	20.880000	0.208751
	20.885000	0.340299
	20.890000	0.337011
	20.895000	0.205462
	20.900000	0.205462
	20.905000	0.337011
	20.910000	0.340299
	20.915000	0.212039
	20.920000	0.208751
	20.925000	0.340299
	20.930000	0.340299
	20.935000	0.208751
	20.940000	0.208751
	20.945000	0.337011
	20.950000	0.343588
	20.955000	0.205462
	20.960000	0.205462
	20.965000	0.340299
	20.970000	0.343588
	20.975000	0.212039
	20.980000	0.205462
	20.985000	0.340299
	20.990000	0.337011
	20.995000	0.205462
	21.000000	0.205462
	21.005000	0.337011
	21.010000	0.337011
	21.015000	0.208751
	21.020000	0.208751
	21.025000	0.343588
	21.030000	0.340299
	21.035000	0.205462
	21.040000	0.208751
	21.045000	0.337011
	21.050000	0.343588
	21.055000	0.208751
	21.060000	0.205462
	21.065000	0.337011
	21.070000	0.337011
	21.075000	0.205462
	21.080000	0.205462
	21.085000	0.340299
	21.090000	0.337011
	21.095000	0.202173
	21.100000	0.205462
	21.105000	0.333722
	21.110000	0.340299
	21.115000	0.205462
	21.120000	0.205462
	21.125000	0.343588
	21.130000	0.340299
	21.135000	0.202173
	21.140000	0.205462
	21.145000	0.337011
	21.150000	0.343588
	21.155000	0.208751
	21.160000	0.205462
	21.165000	0.337011
	21.170000	0.340299
	21.175000	0.208751
	21.180000	0.202173
	21.185000	0.337011
	21.190000	0.337011
	21.195000	0.205462
	21.200000	0.205462
	21.205000	0.340299
	21.210000	0.343588
	21.215000	0.202173
	21.220000	0.208751
	21.225000	0.340299
	21.230000	0.337011
	21.235000	0.205462
	21.240000	0.205462
	21.245000	0.337011
	21.250000	0.340299
	21.255000	0.202173
	21.260000	0.198884
	21.265000	0.340299
	21.270000	0.340299
	21.275000	0.208751
	21.280000	0.202173
	21.285000	0.340299
	21.290000	0.343588
	21.295000	0.205462
	21.300000	0.205462
	21.305000	0.337011
	21.310000	0.337011
	21.315000	0.198884
	21.320000	0.208751
	21.325000	0.340299
	21.330000	0.340299
	21.335000	0.205462
	21.340000	0.205462
	21.345000	0.340299
	21.350000	0.333722
	21.355000	0.202173
	21.360000	0.202173
	21.365000	0.337011
	21.370000	0.337011
	21.375000	0.202173
	21.380000	0.202173
	21.385000	0.337011
	21.390000	0.340299
	21.395000	0.205462
	21.400000	0.205462
	21.405000	0.337011
	21.410000	0.340299
	21.415000	0.205462
	21.420000	0.205462
	21.425000	0.333722
	21.430000	0.337011
	21.435000	0.202173
	21.440000	0.205462
	21.445000	0.340299
	21.450000	0.343588
	21.455000	0.208751
	21.460000	0.208751
	21.465000	0.337011
	21.470000	0.337011
	21.475000	0.205462
	21.480000	0.205462
	21.485000	0.340299
	21.490000	0.340299
	21.495000	0.205462
	21.500000	0.205462
	21.505000	0.337011
	21.510000	0.340299
	21.515000	0.202173
	21.520000	0.208751
	21.525000	0.343588
	21.530000	0.343588
	21.535000	0.208751
	21.540000	0.212039
	21.545000	0.343588
	21.550000	0.343588
	21.555000	0.212039
	21.560000	0.205462
	21.565000	0.343588
	21.570000	0.343588
	21.575000	0.208751
	21.580000	0.212039
	21.585000	0.346877
	21.590000	0.346877
	21.595000	0.212039
	21.600000	0.215328
	21.605000	0.346877
	21.610000	0.346877
	21.615000	0.218617
	21.620000	0.215328
	21.625000	0.350166
	21.630000	0.350166
	21.635000	0.218617
	21.640000	0.218617
	21.645000	0.346877
	21.650000	0.353454
	21.655000	0.215328
	21.660000	0.221905
	21.665000	0.350166
	21.670000	0.353454
	21.675000	0.218617
	21.680000	0.218617
	21.685000	0.353454
	21.690000	0.353454
	21.695000	0.218617
	21.700000	0.218617
	21.705000	0.353454
	21.710000	0.353454
	21.715000	0.221905
	21.720000	0.221905
	21.725000	0.350166
	21.730000	0.353454
	21.735000	0.218617
	21.740000	0.221905
	21.745000	0.353454
	21.750000	0.353454
	21.755000	0.215328
	21.760000	0.218617
	21.765000	0.350166
	21.770000	0.346877
	21.775000	0.215328
	21.780000	0.218617
	21.785000	0.346877
	21.790000	0.337011
	21.795000	0.212039
	21.800000	0.212039
	21.805000	0.340299
	21.810000	0.337011
	21.815000	0.202173
	21.820000	0.202173
	21.825000	0.333722
	21.830000	0.333722
	21.835000	0.195596
	21.840000	0.192307
	21.845000	0.327145
	21.850000	0.330433
	21.855000	0.189018
	21.860000	0.192307
	21.865000	0.327145
	21.870000	0.330433
	21.875000	0.192307
	21.880000	0.195596
	21.885000	0.330433
	21.890000	0.327145
	21.895000	0.195596
	21.900000	0.202173
	21.905000	0.333722
	21.910000	0.330433
	21.915000	0.195596
	21.920000	0.195596
	21.925000	0.330433
	21.930000	0.327145
	21.935000	0.195596
	21.940000	0.198884
	21.945000	0.327145
	21.950000	0.330433
	21.955000	0.195596
	21.960000	0.202173
	21.965000	0.337011
	21.970000	0.337011
	21.975000	0.208751
	21.980000	0.215328
	21.985000	0.350166
	21.990000	0.353454
	21.995000	0.221905
	22.000000	0.225194
	22.005000	0.360032
	22.010000	0.360032
	22.015000	0.225194
	22.020000	0.228483
	22.025000	0.363321
	22.030000	0.363321
	22.035000	0.228483
	22.040000	0.228483
	22.045000	0.363321
	22.050000	0.360032
	22.055000	0.225194
	22.060000	0.231772
	22.065000	0.363321
	22.070000	0.366609
	22.075000	0.228483
	22.080000	0.231772
	22.085000	0.360032
	22.090000	0.360032
	22.095000	0.228483
	22.100000	0.225194
	22.105000	0.360032
	22.110000	0.356743
	22.115000	0.221905
	22.120000	0.221905
	22.125000	0.353454
	22.130000	0.356743
	22.135000	0.221905
	22.140000	0.218617
	22.145000	0.356743
	22.150000	0.353454
	22.155000	0.218617
	22.160000	0.221905
	22.165000	0.353454
	22.170000	0.350166
	22.175000	0.212039
	22.180000	0.215328
	22.185000	0.350166
	22.190000	0.346877
	22.195000	0.215328
	22.200000	0.212039
	22.205000	0.350166
	22.210000	0.343588
	22.215000	0.208751
	22.220000	0.212039
	22.225000	0.343588
	22.230000	0.346877
	22.235000	0.212039
	22.240000	0.208751
	22.245000	0.346877
	22.250000	0.343588
	22.255000	0.212039
	22.260000	0.212039
	22.265000	0.343588
	22.270000	0.343588
	22.275000	0.208751
	22.280000	0.208751
	22.285000	0.343588
	22.290000	0.346877
	22.295000	0.208751
	22.300000	0.212039
	22.305000	0.343588
	22.310000	0.343588
	22.315000	0.208751
	22.320000	0.208751
	22.325000	0.346877
	22.330000	0.340299
	22.335000	0.205462
	22.340000	0.208751
	22.345000	0.346877
	22.350000	0.346877
	22.355000	0.205462
	22.360000	0.208751
	22.365000	0.343588
	22.370000	0.340299
	22.375000	0.208751
	22.380000	0.208751
	22.385000	0.340299
	22.390000	0.343588
	22.395000	0.212039
	22.400000	0.212039
	22.405000	0.350166
	22.410000	0.337011
	22.415000	0.208751
	22.420000	0.215328
	22.425000	0.343588
	22.430000	0.343588
	22.435000	0.212039
	22.440000	0.215328
	22.445000	0.340299
	22.450000	0.343588
	22.455000	0.212039
	22.460000	0.215328
	22.465000	0.350166
	22.470000	0.346877
	22.475000	0.215328
	22.480000	0.208751
	22.485000	0.343588
	22.490000	0.350166
	22.495000	0.212039
	22.500000	0.218617
	22.505000	0.343588
	22.510000	0.346877
	22.515000	0.212039
	22.520000	0.215328
	22.525000	0.343588
	22.530000	0.343588
	22.535000	0.208751
	22.540000	0.212039
	22.545000	0.343588
	22.550000	0.346877
	22.555000	0.212039
	22.560000	0.208751
	22.565000	0.340299
	22.570000	0.340299
	22.575000	0.205462
	22.580000	0.208751
	22.585000	0.340299
	22.590000	0.340299
	22.595000	0.202173
	22.600000	0.205462
	22.605000	0.340299
	22.610000	0.337011
	22.615000	0.202173
	22.620000	0.202173
	22.625000	0.337011
	22.630000	0.330433
	22.635000	0.195596
	22.640000	0.198884
	22.645000	0.330433
	22.650000	0.327145
	22.655000	0.189018
	22.660000	0.189018
	22.665000	0.327145
	22.670000	0.327145
	22.675000	0.189018
	22.680000	0.192307
	22.685000	0.320567
	22.690000	0.320567
	22.695000	0.185730
	22.700000	0.192307
	22.705000	0.327145
	22.710000	0.327145
	22.715000	0.189018
	22.720000	0.189018
	22.725000	0.327145
	22.730000	0.323856
	22.735000	0.192307
	22.740000	0.192307
	22.745000	0.327145
	22.750000	0.323856
	22.755000	0.189018
	22.760000	0.195596
	22.765000	0.327145
	22.770000	0.327145
	22.775000	0.192307
	22.780000	0.195596
	22.785000	0.323856
	22.790000	0.323856
	22.795000	0.192307
	22.800000	0.195596
	22.805000	0.327145
	22.810000	0.330433
	22.815000	0.192307
	22.820000	0.195596
	22.825000	0.327145
	22.830000	0.327145
	22.835000	0.195596
	22.840000	0.198884
	22.845000	0.330433
	22.850000	0.327145
	22.855000	0.189018
	22.860000	0.198884
	22.865000	0.327145
	22.870000	0.333722
	22.875000	0.195596
	22.880000	0.198884
	22.885000	0.330433
	22.890000	0.327145
	22.895000	0.192307
	22.900000	0.195596
	22.905000	0.327145
	22.910000	0.327145
	22.915000	0.195596
	22.920000	0.195596
	22.925000	0.330433
	22.930000	0.327145
	22.935000	0.202173
	22.940000	0.198884
	22.945000	0.333722
	22.950000	0.327145
	22.955000	0.195596
	22.960000	0.202173
	22.965000	0.330433
	22.970000	0.327145
	22.975000	0.195596
	22.980000	0.198884
	22.985000	0.333722
	22.990000	0.330433
	22.995000	0.192307
	23.000000	0.202173
	23.005000	0.333722
	23.010000	0.330433
	23.015000	0.192307
	23.020000	0.198884
	23.025000	0.327145
	23.030000	0.333722
	23.035000	0.192307
	23.040000	0.198884
	23.045000	0.330433
	23.050000	0.327145
	23.055000	0.195596
	23.060000	0.198884
	23.065000	0.333722
	23.070000	0.333722
	23.075000	0.195596
	23.080000	0.198884
	23.085000	0.333722
	23.090000	0.327145
	23.095000	0.192307
	23.100000	0.195596
	23.105000	0.333722
	23.110000	0.327145
	23.115000	0.195596
	23.120000	0.198884
	23.125000	0.327145
	23.130000	0.330433
	23.135000	0.195596
	23.140000	0.195596
	23.145000	0.330433
	23.150000	0.330433
	23.155000	0.195596
	23.160000	0.195596
	23.165000	0.330433
	23.170000	0.327145
	23.175000	0.192307
	23.180000	0.195596
	23.185000	0.330433
	23.190000	0.330433
	23.195000	0.195596
	23.200000	0.198884
	23.205000	0.330433
	23.210000	0.330433
	23.215000	0.195596
	23.220000	0.198884
	23.225000	0.327145
	23.230000	0.327145
	23.235000	0.192307
	23.240000	0.198884
	23.245000	0.327145
	23.250000	0.327145
	23.255000	0.195596
	23.260000	0.202173
	23.265000	0.333722
	23.270000	0.330433
	23.275000	0.195596
	23.280000	0.198884
	23.285000	0.337011
	23.290000	0.327145
	23.295000	0.192307
	23.300000	0.202173
	23.305000	0.333722
	23.310000	0.330433
	23.315000	0.195596
	23.320000	0.198884
	23.325000	0.333722
	23.330000	0.330433
	23.335000	0.195596
	23.340000	0.198884
	23.345000	0.330433
	23.350000	0.327145
	23.355000	0.198884
	23.360000	0.202173
	23.365000	0.333722
	23.370000	0.327145
	23.375000	0.198884
	23.380000	0.202173
	23.385000	0.333722
	23.390000	0.327145
	23.395000	0.195596
	23.400000	0.198884
	23.405000	0.333722
	23.410000	0.330433
	23.415000	0.198884
	23.420000	0.202173
	23.425000	0.333722
	23.430000	0.333722
	23.435000	0.195596
	23.440000	0.202173
	23.445000	0.333722
	23.450000	0.330433
	23.455000	0.195596
	23.460000	0.202173
	23.465000	0.330433
	23.470000	0.337011
	23.475000	0.198884
	23.480000	0.202173
	23.485000	0.333722
	23.490000	0.337011
	23.495000	0.198884
	23.500000	0.195596
	23.505000	0.333722
	23.510000	0.333722
	23.515000	0.198884
	23.520000	0.198884
	23.525000	0.333722
	23.530000	0.337011
	23.535000	0.202173
	23.540000	0.198884
	23.545000	0.337011
	23.550000	0.333722
	23.555000	0.205462
	23.560000	0.202173
	23.565000	0.337011
	23.570000	0.330433
	23.575000	0.202173
	23.580000	0.202173
	23.585000	0.337011
	23.590000	0.333722
	23.595000	0.198884
	23.600000	0.202173
	23.605000	0.337011
	23.610000	0.333722
	23.615000	0.198884
	23.620000	0.198884
	23.625000	0.337011
	23.630000	0.330433
	23.635000	0.195596
	23.640000	0.198884
	23.645000	0.337011
	23.650000	0.333722
	23.655000	0.202173
	23.660000	0.195596
	23.665000	0.337011
	23.670000	0.337011
	23.675000	0.198884
	23.680000	0.202173
	23.685000	0.337011
	23.690000	0.333722
	23.695000	0.198884
	23.700000	0.202173
	23.705000	0.333722
	23.710000	0.330433
	23.715000	0.198884
	23.720000	0.202173
	23.725000	0.340299
	23.730000	0.333722
	23.735000	0.198884
	23.740000	0.202173
	23.745000	0.333722
	23.750000	0.333722
	23.755000	0.195596
	23.760000	0.198884
	23.765000	0.330433
	23.770000	0.330433
	23.775000	0.195596
	23.780000	0.198884
	23.785000	0.330433
	23.790000	0.330433
	23.795000	0.198884
	23.800000	0.202173
	23.805000	0.333722
	23.810000	0.333722
	23.815000	0.198884
	23.820000	0.195596
	23.825000	0.333722
	23.830000	0.333722
	23.835000	0.198884
	23.840000	0.202173
	23.845000	0.333722
	23.850000	0.327145
	23.855000	0.198884
	23.860000	0.202173
	23.865000	0.333722
	23.870000	0.330433
	23.875000	0.195596
	23.880000	0.202173
	23.885000	0.333722
	23.890000	0.330433
	23.895000	0.192307
	23.900000	0.198884
	23.905000	0.333722
	23.910000	0.330433
	23.915000	0.195596
	23.920000	0.198884
	23.925000	0.337011
	23.930000	0.327145
	23.935000	0.198884
	23.940000	0.202173
	23.945000	0.337011
	23.950000	0.330433
	23.955000	0.198884
	23.960000	0.202173
	23.965000	0.337011
	23.970000	0.333722
	23.975000	0.198884
	23.980000	0.198884
	23.985000	0.330433
	23.990000	0.330433
	23.995000	0.195596
	24.000000	0.202173
	24.005000	0.333722
	24.010000	0.330433
	24.015000	0.195596
	24.020000	0.195596
	24.025000	0.327145
	24.030000	0.330433
	24.035000	0.195596
	24.040000	0.202173
	24.045000	0.333722
	24.050000	0.333722
	24.055000	0.195596
	24.060000	0.198884
	24.065000	0.333722
	24.070000	0.330433
	24.075000	0.198884
	24.080000	0.202173
	24.085000	0.333722
	24.090000	0.327145
	24.095000	0.195596
	24.100000	0.198884
	24.105000	0.333722
	24.110000	0.330433
	24.115000	0.198884
	24.120000	0.202173
	24.125000	0.330433
	24.130000	0.330433
	24.135000	0.192307
	24.140000	0.198884
	24.145000	0.330433
	24.150000	0.333722
	24.155000	0.198884
	24.160000	0.202173
	24.165000	0.330433
	24.170000	0.327145
	24.175000	0.195596
	24.180000	0.198884
	24.185000	0.333722
	24.190000	0.330433
	24.195000	0.195596
	24.200000	0.195596
	24.205000	0.330433
	24.210000	0.327145
	24.215000	0.195596
	24.220000	0.202173
	24.225000	0.330433
	24.230000	0.333722
	24.235000	0.195596
	24.240000	0.198884
	24.245000	0.333722
	24.250000	0.330433
	24.255000	0.195596
	24.260000	0.198884
	24.265000	0.330433
	24.270000	0.330433
	24.275000	0.192307
	24.280000	0.198884
	24.285000	0.330433
	24.290000	0.330433
	24.295000	0.192307
	24.300000	0.195596
	24.305000	0.333722
	24.310000	0.330433
	24.315000	0.192307
	24.320000	0.198884
	24.325000	0.327145
	24.330000	0.330433
	24.335000	0.195596
	24.340000	0.198884
	24.345000	0.327145
	24.350000	0.330433
	24.355000	0.195596
	24.360000	0.202173
	24.365000	0.333722
	24.370000	0.330433
	24.375000	0.195596
	24.380000	0.198884
	24.385000	0.330433
	24.390000	0.330433
	24.395000	0.198884
	24.400000	0.198884
	24.405000	0.337011
	24.410000	0.327145
	24.415000	0.195596
	24.420000	0.198884
	24.425000	0.333722
	24.430000	0.330433
	24.435000	0.198884
	24.440000	0.198884
	24.445000	0.333722
	24.450000	0.323856
	24.455000	0.198884
	24.460000	0.198884
	24.465000	0.333722
	24.470000	0.330433
	24.475000	0.195596
	24.480000	0.205462
	24.485000	0.330433
	24.490000	0.330433
	24.495000	0.195596
	24.500000	0.195596
	24.505000	0.333722
	24.510000	0.327145
	24.515000	0.189018
	24.520000	0.195596
	24.525000	0.333722
	24.530000	0.327145
	24.535000	0.189018
	24.540000	0.195596
	24.545000	0.327145
	24.550000	0.327145
	24.555000	0.192307
	24.560000	0.202173
	24.565000	0.327145
	24.570000	0.327145
	24.575000	0.192307
	24.580000	0.195596
	24.585000	0.323856
	24.590000	0.323856
	24.595000	0.195596
	24.600000	0.192307
	24.605000	0.327145
	24.610000	0.327145
	24.615000	0.189018
	24.620000	0.198884
	24.625000	0.327145
	24.630000	0.323856
	24.635000	0.189018
	24.640000	0.192307
	24.645000	0.330433
	24.650000	0.323856
	24.655000	0.195596
	24.660000	0.195596
	24.665000	0.327145
	24.670000	0.327145
	24.675000	0.195596
	24.680000	0.189018
	24.685000	0.327145
	24.690000	0.327145
	24.695000	0.189018
	24.700000	0.192307
	24.705000	0.330433
	24.710000	0.320567
	24.715000	0.192307
	24.720000	0.192307
	24.725000	0.327145
	24.730000	0.323856
	24.735000	0.189018
	24.740000	0.195596
	24.745000	0.327145
	24.750000	0.323856
	24.755000	0.189018
	24.760000	0.192307
	24.765000	0.323856
	24.770000	0.323856
	24.775000	0.189018
	24.780000	0.195596
	24.785000	0.330433
	24.790000	0.323856
	24.795000	0.189018
	24.800000	0.195596
	24.805000	0.330433
	24.810000	0.327145
	24.815000	0.192307
	24.820000	0.192307
	24.825000	0.330433
	24.830000	0.327145
	24.835000	0.192307
	24.840000	0.195596
	24.845000	0.330433
	24.850000	0.323856
	24.855000	0.192307
	24.860000	0.198884
	24.865000	0.323856
	24.870000	0.327145
	24.875000	0.185730
	24.880000	0.195596
	24.885000	0.330433
	24.890000	0.327145
	24.895000	0.189018
	24.900000	0.195596
	24.905000	0.330433
	24.910000	0.327145
	24.915000	0.192307
	24.920000	0.195596
	24.925000	0.330433
	24.930000	0.327145
	24.935000	0.189018
	24.940000	0.198884
	24.945000	0.330433
	24.950000	0.323856
	24.955000	0.189018
	24.960000	0.195596
	24.965000	0.327145
	24.970000	0.323856
	24.975000	0.189018
	24.980000	0.192307
	24.985000	0.327145
	24.990000	0.327145
	24.995000	0.189018
	25.000000	0.192307
	25.005000	0.327145
	25.010000	0.327145
	25.015000	0.192307
	25.020000	0.195596
	25.025000	0.330433
	25.030000	0.323856
	25.035000	0.192307
	25.040000	0.189018
	25.045000	0.327145
	25.050000	0.323856
	25.055000	0.189018
	25.060000	0.192307
	25.065000	0.327145
	25.070000	0.323856
	25.075000	0.185730
	25.080000	0.195596
	25.085000	0.323856
	25.090000	0.323856
	25.095000	0.189018
	25.100000	0.195596
	25.105000	0.327145
	25.110000	0.320567
	25.115000	0.185730
	25.120000	0.185730
	25.125000	0.323856
	25.130000	0.327145
	25.135000	0.189018
	25.140000	0.189018
	25.145000	0.323856
	25.150000	0.320567
	25.155000	0.189018
	25.160000	0.189018
	25.165000	0.323856
	25.170000	0.323856
	25.175000	0.185730
	25.180000	0.189018
	25.185000	0.327145
	25.190000	0.323856
	25.195000	0.185730
	25.200000	0.192307
	25.205000	0.327145
	25.210000	0.320567
	25.215000	0.185730
	25.220000	0.189018
	25.225000	0.323856
	25.230000	0.323856
	25.235000	0.185730
	25.240000	0.189018
	25.245000	0.327145
	25.250000	0.320567
	25.255000	0.182441
	25.260000	0.185730
	25.265000	0.323856
	25.270000	0.323856
	25.275000	0.189018
	25.280000	0.195596
	25.285000	0.323856
	25.290000	0.323856
	25.295000	0.189018
	25.300000	0.195596
	25.305000	0.323856
	25.310000	0.323856
	25.315000	0.185730
	25.320000	0.192307
	25.325000	0.320567
	25.330000	0.323856
	25.335000	0.185730
	25.340000	0.195596
	25.345000	0.327145
	25.350000	0.327145
	25.355000	0.189018
	25.360000	0.192307
	25.365000	0.320567
	25.370000	0.320567
	25.375000	0.192307
	25.380000	0.195596
	25.385000	0.323856
	25.390000	0.317278
	25.395000	0.185730
	25.400000	0.192307
	25.405000	0.327145
	25.410000	0.320567
	25.415000	0.189018
	25.420000	0.192307
	25.425000	0.323856
	25.430000	0.320567
	25.435000	0.189018
	25.440000	0.189018
	25.445000	0.320567
	25.450000	0.323856
	25.455000	0.185730
	25.460000	0.189018
	25.465000	0.323856
	25.470000	0.327145
	25.475000	0.182441
	25.480000	0.185730
	25.485000	0.320567
	25.490000	0.313990
	25.495000	0.189018
	25.500000	0.189018
	25.505000	0.320567
	25.510000	0.320567
	25.515000	0.185730
	25.520000	0.189018
	25.525000	0.320567
	25.530000	0.317278
	25.535000	0.189018
	25.540000	0.185730
	25.545000	0.320567
	25.550000	0.320567
	25.555000	0.185730
	25.560000	0.189018
	25.565000	0.323856
	25.570000	0.320567
	25.575000	0.182441
	25.580000	0.195596
	25.585000	0.323856
	25.590000	0.320567
	25.595000	0.185730
	25.600000	0.189018
	25.605000	0.323856
	25.610000	0.320567
	25.615000	0.189018
	25.620000	0.192307
	25.625000	0.320567
	25.630000	0.320567
	25.635000	0.185730
	25.640000	0.185730
	25.645000	0.320567
	25.650000	0.317278
	25.655000	0.185730
	25.660000	0.185730
	25.665000	0.323856
	25.670000	0.320567
	25.675000	0.185730
	25.680000	0.189018
	25.685000	0.320567
	25.690000	0.320567
	25.695000	0.185730
	25.700000	0.189018
	25.705000	0.320567
	25.710000	0.320567
	25.715000	0.185730
	25.720000	0.192307
	25.725000	0.320567
	25.730000	0.320567
	25.735000	0.185730
	25.740000	0.189018
	25.745000	0.313990
	25.750000	0.323856
	25.755000	0.185730
	25.760000	0.185730
	25.765000	0.323856
	25.770000	0.317278
	25.775000	0.185730
	25.780000	0.189018
	25.785000	0.323856
	25.790000	0.323856
	25.795000	0.182441
	25.800000	0.189018
	25.805000	0.320567
	25.810000	0.320567
	25.815000	0.185730
	25.820000	0.189018
	25.825000	0.327145
	25.830000	0.320567
	25.835000	0.185730
	25.840000	0.192307
	25.845000	0.323856
	25.850000	0.317278
	25.855000	0.182441
	25.860000	0.189018
	25.865000	0.323856
	25.870000	0.320567
	25.875000	0.185730
	25.880000	0.189018
	25.885000	0.323856
	25.890000	0.323856
	25.895000	0.189018
	25.900000	0.189018
	25.905000	0.323856
	25.910000	0.320567
	25.915000	0.192307
	25.920000	0.195596
	25.925000	0.327145
	25.930000	0.330433
	25.935000	0.189018
	25.940000	0.195596
	25.945000	0.327145
	25.950000	0.330433
	25.955000	0.195596
	25.960000	0.195596
	25.965000	0.330433
	25.970000	0.330433
	25.975000	0.198884
	25.980000	0.202173
	25.985000	0.337011
	25.990000	0.333722
	25.995000	0.198884
	26.000000	0.205462
	26.005000	0.330433
	26.010000	0.333722
	26.015000	0.202173
	26.020000	0.202173
	26.025000	0.337011
	26.030000	0.330433
	26.035000	0.198884
	26.040000	0.202173
	26.045000	0.333722
	26.050000	0.330433
	26.055000	0.198884
	26.060000	0.195596
	26.065000	0.330433
	26.070000	0.327145
	26.075000	0.192307
	26.080000	0.198884
	26.085000	0.330433
	26.090000	0.323856
	26.095000	0.189018
	26.100000	0.189018
	26.105000	0.327145
	26.110000	0.320567
	26.115000	0.182441
	26.120000	0.185730
	26.125000	0.320567
	26.130000	0.313990
	26.135000	0.182441
	26.140000	0.182441
	26.145000	0.320567
	26.150000	0.317278
	26.155000	0.179152
	26.160000	0.189018
	26.165000	0.320567
	26.170000	0.317278
	26.175000	0.182441
	26.180000	0.185730
	26.185000	0.320567
	26.190000	0.317278
	26.195000	0.182441
	26.200000	0.182441
	26.205000	0.323856
	26.210000	0.317278
	26.215000	0.182441
	26.220000	0.185730
	26.225000	0.313990
	26.230000	0.313990
	26.235000	0.182441
	26.240000	0.185730
	26.245000	0.317278
	26.250000	0.313990
	26.255000	0.179152
	26.260000	0.185730
	26.265000	0.313990
	26.270000	0.310701
	26.275000	0.182441
	26.280000	0.182441
	26.285000	0.313990
	26.290000	0.313990
	26.295000	0.182441
	26.300000	0.179152
	26.305000	0.317278
	26.310000	0.310701
	26.315000	0.179152
	26.320000	0.182441
	26.325000	0.310701
	26.330000	0.317278
	26.335000	0.182441
	26.340000	0.185730
	26.345000	0.317278
	26.350000	0.313990
	26.355000	0.182441
	26.360000	0.182441
	26.365000	0.320567
	26.370000	0.313990
	26.375000	0.179152
	26.380000	0.182441
	26.385000	0.317278
	26.390000	0.317278
	26.395000	0.182441
	26.400000	0.182441
	26.405000	0.317278
	26.410000	0.317278
	26.415000	0.182441
	26.420000	0.189018
	26.425000	0.320567
	26.430000	0.317278
	26.435000	0.179152
	26.440000	0.192307
	26.445000	0.320567
	26.450000	0.327145
	26.455000	0.198884
	26.460000	0.198884
	26.465000	0.333722
	26.470000	0.340299
	26.475000	0.205462
	26.480000	0.215328
	26.485000	0.346877
	26.490000	0.350166
	26.495000	0.212039
	26.500000	0.215328
	26.505000	0.350166
	26.510000	0.350166
	26.515000	0.218617
	26.520000	0.218617
	26.525000	0.353454
	26.530000	0.346877
	26.535000	0.212039
	26.540000	0.218617
	26.545000	0.350166
	26.550000	0.343588
	26.555000	0.215328
	26.560000	0.208751
	26.565000	0.346877
	26.570000	0.343588
	26.575000	0.208751
	26.580000	0.208751
	26.585000	0.346877
	26.590000	0.340299
	26.595000	0.205462
	26.600000	0.208751
	26.605000	0.340299
	26.610000	0.333722
	26.615000	0.198884
	26.620000	0.198884
	26.625000	0.343588
	26.630000	0.330433
	26.635000	0.195596
	26.640000	0.202173
	26.645000	0.333722
	26.650000	0.330433
	26.655000	0.195596
	26.660000	0.195596
	26.665000	0.330433
	26.670000	0.327145
	26.675000	0.192307
	26.680000	0.195596
	26.685000	0.330433
	26.690000	0.327145
	26.695000	0.195596
	26.700000	0.195596
	26.705000	0.330433
	26.710000	0.323856
	26.715000	0.189018
	26.720000	0.192307
	26.725000	0.327145
	26.730000	0.323856
	26.735000	0.189018
	26.740000	0.195596
	26.745000	0.327145
	26.750000	0.323856
	26.755000	0.189018
	26.760000	0.192307
	26.765000	0.327145
	26.770000	0.327145
	26.775000	0.189018
	26.780000	0.195596
	26.785000	0.327145
	26.790000	0.320567
	26.795000	0.192307
	26.800000	0.195596
	26.805000	0.327145
	26.810000	0.327145
	26.815000	0.189018
	26.820000	0.195596
	26.825000	0.327145
	26.830000	0.323856
	26.835000	0.195596
	26.840000	0.195596
	26.845000	0.327145
	26.850000	0.327145
	26.855000	0.195596
	26.860000	0.192307
	26.865000	0.327145
	26.870000	0.323856
	26.875000	0.192307
	26.880000	0.198884
	26.885000	0.327145
	26.890000	0.320567
	26.895000	0.189018
	26.900000	0.198884
	26.905000	0.330433
	26.910000	0.327145
	26.915000	0.195596
	26.920000	0.198884
	26.925000	0.333722
	26.930000	0.327145
	26.935000	0.195596
	26.940000	0.195596
	26.945000	0.330433
	26.950000	0.327145
	26.955000	0.195596
	26.960000	0.202173
	26.965000	0.330433
	26.970000	0.327145
	26.975000	0.195596
	26.980000	0.198884
	26.985000	0.330433
	26.990000	0.327145
	26.995000	0.198884
	27.000000	0.198884
	27.005000	0.333722
	27.010000	0.327145
	27.015000	0.195596
	27.020000	0.195596
	27.025000	0.330433
	27.030000	0.333722
	27.035000	0.198884
	27.040000	0.195596
	27.045000	0.330433
	27.050000	0.327145
	27.055000	0.192307
	27.060000	0.192307
	27.065000	0.330433
	27.070000	0.323856
	27.075000	0.189018
	27.080000	0.189018
	27.085000	0.327145
	27.090000	0.320567
	27.095000	0.185730
	27.100000	0.189018
	27.105000	0.327145
	27.110000	0.317278
	27.115000	0.182441
	27.120000	0.179152
	27.125000	0.317278
	27.130000	0.313990
	27.135000	0.175863
	27.140000	0.179152
	27.145000	0.310701
	27.150000	0.307412
	27.155000	0.175863
	27.160000	0.175863
	27.165000	0.307412
	27.170000	0.307412
	27.175000	0.175863
	27.180000	0.179152
	27.185000	0.310701
	27.190000	0.307412
	27.195000	0.172575
	27.200000	0.172575
	27.205000	0.310701
	27.210000	0.307412
	27.215000	0.175863
	27.220000	0.175863
	27.225000	0.307412
	27.230000	0.307412
	27.235000	0.172575
	27.240000	0.175863
	27.245000	0.310701
	27.250000	0.307412
	27.255000	0.172575
	27.260000	0.179152
	27.265000	0.310701
	27.270000	0.310701
	27.275000	0.172575
	27.280000	0.179152
	27.285000	0.310701
	27.290000	0.313990
	27.295000	0.169286
	27.300000	0.179152
	27.305000	0.310701
	27.310000	0.307412
	27.315000	0.175863
	27.320000	0.182441
	27.325000	0.317278
	27.330000	0.310701
	27.335000	0.175863
	27.340000	0.182441
	27.345000	0.313990
	27.350000	0.313990
	27.355000	0.175863
	27.360000	0.182441
	27.365000	0.310701
	27.370000	0.313990
	27.375000	0.179152
	27.380000	0.179152
	27.385000	0.307412
	27.390000	0.317278
	27.395000	0.175863
	27.400000	0.182441
	27.405000	0.313990
	27.410000	0.313990
	27.415000	0.175863
	27.420000	0.175863
	27.425000	0.317278
	27.430000	0.310701
	27.435000	0.172575
	27.440000	0.182441
	27.445000	0.317278
	27.450000	0.310701
	27.455000	0.175863
	27.460000	0.182441
	27.465000	0.313990
	27.470000	0.313990
	27.475000	0.182441
	27.480000	0.179152
	27.485000	0.313990
	27.490000	0.313990
	27.495000	0.179152
	27.500000	0.182441
	27.505000	0.317278
	27.510000	0.313990
	27.515000	0.182441
	27.520000	0.185730
	27.525000	0.313990
	27.530000	0.317278
	27.535000	0.172575
	27.540000	0.182441
	27.545000	0.320567
	27.550000	0.313990
	27.555000	0.185730
	27.560000	0.182441
	27.565000	0.313990
	27.570000	0.313990
	27.575000	0.182441
	27.580000	0.182441
	27.585000	0.317278
	27.590000	0.320567
	27.595000	0.179152
	27.600000	0.182441
	27.605000	0.317278
	27.610000	0.313990
	27.615000	0.179152
	27.620000	0.185730
	27.625000	0.320567
	27.630000	0.317278
	27.635000	0.182441
	27.640000	0.182441
	27.645000	0.317278
	27.650000	0.317278
	27.655000	0.182441
	27.660000	0.185730
	27.665000	0.317278
	27.670000	0.317278
	27.675000	0.179152
	27.680000	0.182441
	27.685000	0.320567
	27.690000	0.317278
	27.695000	0.175863
	27.700000	0.185730
	27.705000	0.320567
	27.710000	0.313990
	27.715000	0.182441
	27.720000	0.182441
	27.725000	0.317278
	27.730000	0.313990
	27.735000	0.182441
	27.740000	0.182441
	27.745000	0.320567
	27.750000	0.313990
	27.755000	0.182441
	27.760000	0.182441
	27.765000	0.317278
	27.770000	0.317278
	27.775000	0.179152
	27.780000	0.182441
	27.785000	0.313990
	27.790000	0.313990
	27.795000	0.182441
	27.800000	0.185730
	27.805000	0.317278
	27.810000	0.313990
	27.815000	0.175863
	27.820000	0.185730
	27.825000	0.320567
	27.830000	0.313990
	27.835000	0.182441
	27.840000	0.189018
	27.845000	0.320567
	27.850000	0.313990
	27.855000	0.179152
	27.860000	0.182441
	27.865000	0.317278
	27.870000	0.313990
	27.875000	0.175863
	27.880000	0.182441
	27.885000	0.313990
	27.890000	0.317278
	27.895000	0.179152
	27.900000	0.182441
	27.905000	0.317278
	27.910000	0.317278
	27.915000	0.182441
	27.920000	0.182441
	27.925000	0.320567
	27.930000	0.313990
	27.935000	0.182441
	27.940000	0.182441
	27.945000	0.317278
	27.950000	0.313990
	27.955000	0.182441
	27.960000	0.179152
	27.965000	0.317278
	27.970000	0.313990
	27.975000	0.179152
	27.980000	0.185730
	27.985000	0.320567
	27.990000	0.313990
	27.995000	0.179152
	28.000000	0.185730
	28.005000	0.317278
	28.010000	0.317278
	28.015000	0.179152
	28.020000	0.182441
	28.025000	0.313990
	28.030000	0.313990
	28.035000	0.179152
	28.040000	0.185730
	28.045000	0.317278
	28.050000	0.320567
	28.055000	0.182441
	28.060000	0.185730
	28.065000	0.320567
	28.070000	0.313990
	28.075000	0.179152
	28.080000	0.182441
	28.085000	0.313990
	28.090000	0.317278
	28.095000	0.182441
	28.100000	0.182441
	28.105000	0.317278
	28.110000	0.317278
	28.115000	0.179152
	28.120000	0.185730
	28.125000	0.313990
	28.130000	0.320567
	28.135000	0.179152
	28.140000	0.182441
	28.145000	0.320567
	28.150000	0.320567
	28.155000	0.182441
	28.160000	0.185730
	28.165000	0.313990
	28.170000	0.317278
	28.175000	0.175863
	28.180000	0.182441
	28.185000	0.317278
	28.190000	0.320567
	28.195000	0.182441
	28.200000	0.182441
	28.205000	0.320567
	28.210000	0.317278
	28.215000	0.179152
	28.220000	0.182441
	28.225000	0.320567
	28.230000	0.317278
	28.235000	0.182441
	28.240000	0.179152
	28.245000	0.317278
	28.250000	0.317278
	28.255000	0.182441
	28.260000	0.185730
	28.265000	0.317278
	28.270000	0.317278
	28.275000	0.185730
	28.280000	0.185730
	28.285000	0.317278
	28.290000	0.313990
	28.295000	0.182441
	28.300000	0.182441
	28.305000	0.313990
	28.310000	0.313990
	28.315000	0.182441
	28.320000	0.182441
	28.325000	0.320567
	28.330000	0.317278
	28.335000	0.182441
	28.340000	0.185730
	28.345000	0.317278
	28.350000	0.313990
	28.355000	0.182441
	28.360000	0.182441
	28.365000	0.313990
	28.370000	0.317278
	28.375000	0.179152
	28.380000	0.179152
	28.385000	0.320567
	28.390000	0.317278
	28.395000	0.182441
	28.400000	0.185730
	28.405000	0.317278
	28.410000	0.317278
	28.415000	0.179152
	28.420000	0.185730
	28.425000	0.313990
	28.430000	0.313990
	28.435000	0.182441
	28.440000	0.185730
	28.445000	0.313990
	28.450000	0.317278
	28.455000	0.182441
	28.460000	0.182441
	28.465000	0.317278
	28.470000	0.313990
	28.475000	0.182441
	28.480000	0.179152
	28.485000	0.310701
	28.490000	0.313990
	28.495000	0.175863
	28.500000	0.182441
	28.505000	0.313990
	28.510000	0.320567
	28.515000	0.182441
	28.520000	0.182441
	28.525000	0.310701
	28.530000	0.310701
	28.535000	0.182441
	28.540000	0.182441
	28.545000	0.317278
	28.550000	0.310701
	28.555000	0.182441
	28.560000	0.179152
	28.565000	0.313990
	28.570000	0.313990
	28.575000	0.182441
	28.580000	0.182441
	28.585000	0.313990
	28.590000	0.313990
	28.595000	0.182441
	28.600000	0.182441
	28.605000	0.317278
	28.610000	0.317278
	28.615000	0.182441
	28.620000	0.182441
	28.625000	0.313990
	28.630000	0.317278
	28.635000	0.179152
	28.640000	0.179152
	28.645000	0.317278
	28.650000	0.317278
	28.655000	0.179152
	28.660000	0.185730
	28.665000	0.317278
	28.670000	0.317278
	28.675000	0.182441
	28.680000	0.179152
	28.685000	0.313990
	28.690000	0.317278
	28.695000	0.182441
	28.700000	0.182441
	28.705000	0.313990
	28.710000	0.320567
	28.715000	0.182441
	28.720000	0.179152
	28.725000	0.317278
	28.730000	0.317278
	28.735000	0.175863
	28.740000	0.175863
	28.745000	0.317278
	28.750000	0.313990
	28.755000	0.182441
	28.760000	0.175863
	28.765000	0.313990
	28.770000	0.313990
	28.775000	0.179152
	28.780000	0.179152
	28.785000	0.313990
	28.790000	0.313990
	28.795000	0.179152
	28.800000	0.175863
	28.805000	0.317278
	28.810000	0.317278
	28.815000	0.175863
	28.820000	0.182441
	28.825000	0.310701
	28.830000	0.313990
	28.835000	0.179152
	28.840000	0.179152
	28.845000	0.310701
	28.850000	0.310701
	28.855000	0.182441
	28.860000	0.179152
	28.865000	0.310701
	28.870000	0.313990
	28.875000	0.179152
	28.880000	0.179152
	28.885000	0.313990
	28.890000	0.310701
	28.895000	0.179152
	28.900000	0.182441
	28.905000	0.307412
	28.910000	0.313990
	28.915000	0.182441
	28.920000	0.182441
	28.925000	0.313990
	28.930000	0.313990
	28.935000	0.182441
	28.940000	0.175863
	28.945000	0.313990
	28.950000	0.317278
	28.955000	0.182441
	28.960000	0.172575
	28.965000	0.307412
	28.970000	0.313990
	28.975000	0.175863
	28.980000	0.182441
	28.985000	0.317278
	28.990000	0.310701
	28.995000	0.175863
	29.000000	0.175863
	29.005000	0.307412
	29.010000	0.313990
	29.015000	0.179152
	29.020000	0.172575
	29.025000	0.313990
	29.030000	0.310701
	29.035000	0.179152
	29.040000	0.182441
	29.045000	0.310701
	29.050000	0.310701
	29.055000	0.175863
	29.060000	0.175863
	29.065000	0.307412
	29.070000	0.317278
	29.075000	0.179152
	29.080000	0.179152
	29.085000	0.307412
	29.090000	0.313990
	29.095000	0.175863
	29.100000	0.175863
	29.105000	0.307412
	29.110000	0.313990
	29.115000	0.179152
	29.120000	0.175863
	29.125000	0.310701
	29.130000	0.317278
	29.135000	0.175863
	29.140000	0.182441
	29.145000	0.310701
	29.150000	0.313990
	29.155000	0.175863
	29.160000	0.179152
	29.165000	0.310701
	29.170000	0.313990
	29.175000	0.175863
	29.180000	0.179152
	29.185000	0.310701
	29.190000	0.317278
	29.195000	0.175863
	29.200000	0.175863
	29.205000	0.307412
	29.210000	0.313990
	29.215000	0.179152
	29.220000	0.175863
	29.225000	0.307412
	29.230000	0.313990
	29.235000	0.179152
	29.240000	0.175863
	29.245000	0.307412
	29.250000	0.310701
	29.255000	0.175863
	29.260000	0.172575
	29.265000	0.310701
	29.270000	0.313990
	29.275000	0.172575
	29.280000	0.175863
	29.285000	0.310701
	29.290000	0.313990
	29.295000	0.175863
	29.300000	0.172575
	29.305000	0.307412
	29.310000	0.310701
	29.315000	0.175863
	29.320000	0.175863
	29.325000	0.310701
	29.330000	0.313990
	29.335000	0.179152
	29.340000	0.175863
	29.345000	0.310701
	29.350000	0.310701
	29.355000	0.179152
	29.360000	0.172575
	29.365000	0.307412
	29.370000	0.310701
	29.375000	0.175863
	29.380000	0.172575
	29.385000	0.307412
	29.390000	0.313990
	29.395000	0.175863
	29.400000	0.172575
	29.405000	0.307412
	29.410000	0.310701
	29.415000	0.179152
	29.420000	0.172575
	29.425000	0.304124
	29.430000	0.317278
	29.435000	0.175863
	29.440000	0.175863
	29.445000	0.310701
	29.450000	0.310701
	29.455000	0.179152
	29.460000	0.172575
	29.465000	0.307412
	29.470000	0.307412
	29.475000	0.179152
	29.480000	0.172575
	29.485000	0.307412
	29.490000	0.310701
	29.495000	0.175863
	29.500000	0.172575
	29.505000	0.307412
	29.510000	0.310701
	29.515000	0.182441
	29.520000	0.172575
	29.525000	0.304124
	29.530000	0.310701
	29.535000	0.175863
	29.540000	0.172575
	29.545000	0.310701
	29.550000	0.310701
	29.555000	0.172575
	29.560000	0.175863
	29.565000	0.304124
	29.570000	0.313990
	29.575000	0.179152
	29.580000	0.172575
	29.585000	0.304124
	29.590000	0.304124
	29.595000	0.182441
	29.600000	0.175863
	29.605000	0.310701
	29.610000	0.310701
	29.615000	0.179152
	29.620000	0.175863
	29.625000	0.304124
	29.630000	0.313990
	29.635000	0.175863
	29.640000	0.172575
	29.645000	0.304124
	29.650000	0.310701
	29.655000	0.175863
	29.660000	0.169286
	29.665000	0.304124
	29.670000	0.310701
	29.675000	0.185730
	29.680000	0.172575
	29.685000	0.304124
	29.690000	0.313990
	29.695000	0.179152
	29.700000	0.172575
	29.705000	0.307412
	29.710000	0.313990
	29.715000	0.175863
	29.720000	0.175863
	29.725000	0.304124
	29.730000	0.310701
	29.735000	0.175863
	29.740000	0.172575
	29.745000	0.307412
	29.750000	0.307412
	29.755000	0.175863
	29.760000	0.175863
	29.765000	0.304124
	29.770000	0.313990
	29.775000	0.175863
	29.780000	0.169286
	29.785000	0.307412
	29.790000	0.313990
	29.795000	0.182441
	29.800000	0.172575
	29.805000	0.307412
	29.810000	0.313990
	29.815000	0.175863
	29.820000	0.175863
	29.825000	0.304124
	29.830000	0.310701
	29.835000	0.172575
	29.840000	0.175863
	29.845000	0.307412
	29.850000	0.310701
	29.855000	0.179152
	29.860000	0.169286
	29.865000	0.307412
	29.870000	0.313990
	29.875000	0.179152
	29.880000	0.169286
	29.885000	0.304124
	29.890000	0.310701
	29.895000	0.179152
	29.900000	0.172575
	29.905000	0.304124
	29.910000	0.310701
	29.915000	0.179152
	29.920000	0.172575
	29.925000	0.304124
	29.930000	0.313990
	29.935000	0.175863
	29.940000	0.172575
	29.945000	0.304124
	29.950000	0.310701
	29.955000	0.179152
	29.960000	0.169286
	29.965000	0.310701
	29.970000	0.313990
	29.975000	0.179152
	29.980000	0.172575
	29.985000	0.307412
	29.990000	0.313990
	29.995000	0.172575
	30.000000	0.169286
	30.005000	0.307412
	30.010000	0.313990
	30.015000	0.182441
	30.020000	0.169286
	30.025000	0.304124
	30.030000	0.307412
	30.035000	0.175863
	30.040000	0.169286
	30.045000	0.304124
	30.050000	0.313990
	30.055000	0.179152
	30.060000	0.169286
	30.065000	0.304124
	30.070000	0.310701
	30.075000	0.179152
	30.080000	0.172575
	30.085000	0.304124
	30.090000	0.307412
	30.095000	0.175863
	30.100000	0.169286
	30.105000	0.304124
	30.110000	0.313990
	30.115000	0.179152
	30.120000	0.172575
	30.125000	0.304124
	30.130000	0.307412
	30.135000	0.175863
	30.140000	0.172575
	30.145000	0.304124
	30.150000	0.310701
	30.155000	0.172575
	30.160000	0.169286
	30.165000	0.300835
	30.170000	0.307412
	30.175000	0.179152
	30.180000	0.172575
	30.185000	0.300835
	30.190000	0.310701
	30.195000	0.175863
	30.200000	0.169286
	30.205000	0.300835
	30.210000	0.313990
	30.215000	0.179152
	30.220000	0.165997
	30.225000	0.300835
	30.230000	0.310701
	30.235000	0.175863
	30.240000	0.165997
	30.245000	0.307412
	30.250000	0.310701
	30.255000	0.175863
	30.260000	0.169286
	30.265000	0.304124
	30.270000	0.313990
	30.275000	0.175863
	30.280000	0.165997
	30.285000	0.304124
	30.290000	0.313990
	30.295000	0.179152
	30.300000	0.169286
	30.305000	0.300835
	30.310000	0.310701
	30.315000	0.179152
	30.320000	0.169286
	30.325000	0.304124
	30.330000	0.310701
	30.335000	0.179152
	30.340000	0.165997
	30.345000	0.304124
	30.350000	0.310701
	30.355000	0.182441
	30.360000	0.169286
	30.365000	0.297546
	30.370000	0.307412
	30.375000	0.175863
	30.380000	0.172575
	30.385000	0.300835
	30.390000	0.313990
	30.395000	0.179152
	30.400000	0.172575
	30.405000	0.300835
	30.410000	0.313990
	30.415000	0.179152
	30.420000	0.172575
	30.425000	0.300835
	30.430000	0.310701
	30.435000	0.175863
	30.440000	0.169286
	30.445000	0.304124
	30.450000	0.317278
	30.455000	0.182441
	30.460000	0.169286
	30.465000	0.304124
	30.470000	0.313990
	30.475000	0.179152
	30.480000	0.169286
	30.485000	0.300835
	30.490000	0.313990
	30.495000	0.175863
	30.500000	0.169286
	30.505000	0.300835
	30.510000	0.313990
	30.515000	0.179152
	30.520000	0.169286
	30.525000	0.307412
	30.530000	0.317278
	30.535000	0.179152
	30.540000	0.169286
	30.545000	0.300835
	30.550000	0.317278
	30.555000	0.179152
	30.560000	0.169286
	30.565000	0.304124
	30.570000	0.310701
	30.575000	0.175863
	30.580000	0.169286
	30.585000	0.304124
	30.590000	0.310701
	30.595000	0.179152
	30.600000	0.172575
	30.605000	0.300835
	30.610000	0.313990
	30.615000	0.182441
	30.620000	0.169286
	30.625000	0.304124
	30.630000	0.317278
	30.635000	0.179152
	30.640000	0.169286
	30.645000	0.300835
	30.650000	0.320567
	30.655000	0.182441
	30.660000	0.165997
	30.665000	0.300835
	30.670000	0.320567
	30.675000	0.179152
	30.680000	0.169286
	30.685000	0.300835
	30.690000	0.317278
	30.695000	0.179152
	30.700000	0.169286
	30.705000	0.300835
	30.710000	0.313990
	30.715000	0.179152
	30.720000	0.169286
	30.725000	0.304124
	30.730000	0.313990
	30.735000	0.175863
	30.740000	0.169286
	30.745000	0.297546
	30.750000	0.310701
	30.755000	0.179152
	30.760000	0.169286
	30.765000	0.304124
	30.770000	0.310701
	30.775000	0.175863
	30.780000	0.165997
	30.785000	0.300835
	30.790000	0.313990
	30.795000	0.179152
	30.800000	0.165997
	30.805000	0.300835
	30.810000	0.307412
	30.815000	0.179152
	30.820000	0.165997
	30.825000	0.297546
	30.830000	0.313990
	30.835000	0.179152
	30.840000	0.172575
	30.845000	0.297546
	30.850000	0.310701
	30.855000	0.179152
	30.860000	0.169286
	30.865000	0.300835
	30.870000	0.310701
	30.875000	0.175863
	30.880000	0.165997
	30.885000	0.297546
	30.890000	0.313990
	30.895000	0.172575
	30.900000	0.169286
	30.905000	0.297546
	30.910000	0.313990
	30.915000	0.175863
	30.920000	0.165997
	30.925000	0.294257
	30.930000	0.310701
	30.935000	0.175863
	30.940000	0.162708
	30.945000	0.297546
	30.950000	0.310701
	30.955000	0.172575
	30.960000	0.162708
	30.965000	0.297546
	30.970000	0.310701
	30.975000	0.179152
	30.980000	0.162708
	30.985000	0.297546
	30.990000	0.310701
	30.995000	0.175863
	31.000000	0.165997
	31.005000	0.300835
	31.010000	0.313990
	31.015000	0.182441
	31.020000	0.175863
	31.025000	0.307412
	31.030000	0.320567
	31.035000	0.189018
	31.040000	0.179152
	31.045000	0.310701
	31.050000	0.330433
	31.055000	0.198884
	31.060000	0.185730
	31.065000	0.317278
	31.070000	0.333722
	31.075000	0.202173
	31.080000	0.185730
	31.085000	0.320567
	31.090000	0.330433
	31.095000	0.195596
	31.100000	0.185730
	31.105000	0.317278
	31.110000	0.337011
	31.115000	0.198884
	31.120000	0.179152
	31.125000	0.317278
	31.130000	0.330433
	31.135000	0.195596
	31.140000	0.179152
	31.145000	0.313990
	31.150000	0.327145
	31.155000	0.195596
	31.160000	0.175863
	31.165000	0.304124
	31.170000	0.320567
	31.175000	0.189018
	31.180000	0.175863
	31.185000	0.307412
	31.190000	0.320567
	31.195000	0.182441
	31.200000	0.169286
	31.205000	0.304124
	31.210000	0.313990
	31.215000	0.182441
	31.220000	0.162708
	31.225000	0.294257
	31.230000	0.310701
	31.235000	0.172575
	31.240000	0.152842
	31.245000	0.281102
	31.250000	0.304124
	31.255000	0.169286
	31.260000	0.156131
	31.265000	0.287680
	31.270000	0.300835
	31.275000	0.165997
	31.280000	0.159420
	31.285000	0.284391
	31.290000	0.300835
	31.295000	0.165997
	31.300000	0.152842
	31.305000	0.284391
	31.310000	0.307412
	31.315000	0.165997
	31.320000	0.156131
	31.325000	0.290969
	31.330000	0.300835
	31.335000	0.172575
	31.340000	0.156131
	31.345000	0.284391
	31.350000	0.307412
	31.355000	0.172575
	31.360000	0.159420
	31.365000	0.287680
	31.370000	0.307412
	31.375000	0.169286
	31.380000	0.159420
	31.385000	0.290969
	31.390000	0.307412
	31.395000	0.175863
	31.400000	0.156131
	31.405000	0.290969
	31.410000	0.304124
	31.415000	0.172575
	31.420000	0.156131
	31.425000	0.290969
	31.430000	0.307412
	31.435000	0.172575
	31.440000	0.156131
	31.445000	0.287680
	31.450000	0.304124
	31.455000	0.169286
	31.460000	0.156131
	31.465000	0.290969
	31.470000	0.300835
	31.475000	0.172575
	31.480000	0.156131
	31.485000	0.290969
	31.490000	0.304124
	31.495000	0.169286
	31.500000	0.156131
	31.505000	0.294257
	31.510000	0.307412
	31.515000	0.175863
	31.520000	0.156131
	31.525000	0.287680
	31.530000	0.310701
	31.535000	0.175863
	31.540000	0.156131
	31.545000	0.294257
	31.550000	0.310701
	31.555000	0.175863
	31.560000	0.165997
	31.565000	0.294257
	31.570000	0.313990
	31.575000	0.179152
	31.580000	0.162708
	31.585000	0.290969
	31.590000	0.313990
	31.595000	0.179152
	31.600000	0.162708
	31.605000	0.294257
	31.610000	0.307412
	31.615000	0.179152
	31.620000	0.159420
	31.625000	0.294257
	31.630000	0.313990
	31.635000	0.175863
	31.640000	0.159420
	31.645000	0.290969
	31.650000	0.307412
	31.655000	0.175863
	31.660000	0.159420
	31.665000	0.290969
	31.670000	0.310701
	31.675000	0.172575
	31.680000	0.159420
	31.685000	0.287680
	31.690000	0.310701
	31.695000	0.182441
	31.700000	0.169286
	31.705000	0.304124
	31.710000	0.327145
	31.715000	0.198884
	31.720000	0.182441
	31.725000	0.320567
	31.730000	0.337011
	31.735000	0.205462
	31.740000	0.192307
	31.745000	0.327145
	31.750000	0.346877
	31.755000	0.212039
	31.760000	0.189018
	31.765000	0.323856
	31.770000	0.340299
	31.775000	0.212039
	31.780000	0.192307
	31.785000	0.323856
	31.790000	0.337011
	31.795000	0.208751
	31.800000	0.189018
	31.805000	0.317278
	31.810000	0.337011
	31.815000	0.205462
	31.820000	0.182441
	31.825000	0.313990
	31.830000	0.333722
	31.835000	0.198884
	31.840000	0.182441
	31.845000	0.310701
	31.850000	0.330433
	31.855000	0.195596
	31.860000	0.175863
	31.865000	0.310701
	31.870000	0.323856
	31.875000	0.192307
	31.880000	0.175863
	31.885000	0.304124
	31.890000	0.320567
	31.895000	0.189018
	31.900000	0.169286
	31.905000	0.300835
	31.910000	0.320567
	31.915000	0.192307
	31.920000	0.169286
	31.925000	0.297546
	31.930000	0.320567
	31.935000	0.189018
	31.940000	0.169286
	31.945000	0.300835
	31.950000	0.323856
	31.955000	0.189018
	31.960000	0.172575
	31.965000	0.300835
	31.970000	0.320567
	31.975000	0.182441
	31.980000	0.169286
	31.985000	0.300835
	31.990000	0.320567
	31.995000	0.189018
	32.000000	0.165997
	32.005000	0.300835
	32.010000	0.320567
	32.015000	0.185730
	32.020000	0.169286
	32.025000	0.300835
	32.030000	0.320567
	32.035000	0.185730
	32.040000	0.169286
	32.045000	0.300835
	32.050000	0.313990
	32.055000	0.185730
	32.060000	0.169286
	32.065000	0.297546
	32.070000	0.320567
	32.075000	0.182441
	32.080000	0.162708
	32.085000	0.297546
	32.090000	0.320567
	32.095000	0.185730
	32.100000	0.169286
	32.105000	0.297546
	32.110000	0.320567
	32.115000	0.182441
	32.120000	0.169286
	32.125000	0.300835
	32.130000	0.320567
	32.135000	0.189018
	32.140000	0.165997
	32.145000	0.300835
	32.150000	0.320567
	32.155000	0.189018
	32.160000	0.169286
	32.165000	0.294257
	32.170000	0.317278
	32.175000	0.189018
	32.180000	0.165997
	32.185000	0.297546
	32.190000	0.317278
	32.195000	0.185730
	32.200000	0.165997
	32.205000	0.297546
	32.210000	0.317278
	32.215000	0.182441
	32.220000	0.159420
	32.225000	0.294257
	32.230000	0.313990
	32.235000	0.179152
	32.240000	0.159420
	32.245000	0.290969
	32.250000	0.313990
	32.255000	0.182441
	32.260000	0.156131
	32.265000	0.287680
	32.270000	0.307412
	32.275000	0.175863
	32.280000	0.152842
	32.285000	0.281102
	32.290000	0.300835
	32.295000	0.169286
	32.300000	0.146265
	32.305000	0.277814
	32.310000	0.300835
	32.315000	0.165997
	32.320000	0.142976
	32.325000	0.274525
	32.330000	0.294257
	32.335000	0.159420
	32.340000	0.136399
	32.345000	0.271236
	32.350000	0.294257
	32.355000	0.159420
	32.360000	0.142976
	32.365000	0.274525
	32.370000	0.297546
	32.375000	0.169286
	32.380000	0.146265
	32.385000	0.274525
	32.390000	0.297546
	32.395000	0.169286
	32.400000	0.146265
	32.405000	0.281102
	32.410000	0.300835
	32.415000	0.165997
	32.420000	0.146265
	32.425000	0.277814
	32.430000	0.300835
	32.435000	0.162708
	32.440000	0.149554
	32.445000	0.277814
	32.450000	0.304124
	32.455000	0.165997
	32.460000	0.146265
	32.465000	0.284391
	32.470000	0.300835
	32.475000	0.169286
	32.480000	0.149554
	32.485000	0.281102
	32.490000	0.307412
	32.495000	0.169286
	32.500000	0.152842
	32.505000	0.281102
	32.510000	0.304124
	32.515000	0.172575
	32.520000	0.152842
	32.525000	0.284391
	32.530000	0.307412
	32.535000	0.172575
	32.540000	0.152842
	32.545000	0.284391
	32.550000	0.307412
	32.555000	0.172575
	32.560000	0.152842
	32.565000	0.281102
	32.570000	0.310701
	32.575000	0.175863
	32.580000	0.152842
	32.585000	0.281102
	32.590000	0.304124
	32.595000	0.175863
	32.600000	0.152842
	32.605000	0.284391
	32.610000	0.300835
	32.615000	0.172575
	32.620000	0.152842
	32.625000	0.284391
	32.630000	0.304124
	32.635000	0.175863
	32.640000	0.149554
	32.645000	0.284391
	32.650000	0.307412
	32.655000	0.172575
	32.660000	0.152842
	32.665000	0.281102
	32.670000	0.310701
	32.675000	0.172575
	32.680000	0.149554
	32.685000	0.284391
	32.690000	0.304124
	32.695000	0.172575
	32.700000	0.156131
	32.705000	0.284391
	32.710000	0.304124
	32.715000	0.172575
	32.720000	0.149554
	32.725000	0.284391
	32.730000	0.307412
	32.735000	0.179152
	32.740000	0.152842
	32.745000	0.287680
	32.750000	0.310701
	32.755000	0.175863
	32.760000	0.156131
	32.765000	0.281102
	32.770000	0.307412
	32.775000	0.175863
	32.780000	0.149554
	32.785000	0.284391
	32.790000	0.307412
	32.795000	0.175863
	32.800000	0.152842
	32.805000	0.284391
	32.810000	0.310701
	32.815000	0.179152
	32.820000	0.156131
	32.825000	0.284391
	32.830000	0.307412
	32.835000	0.175863
	32.840000	0.156131
	32.845000	0.284391
	32.850000	0.307412
	32.855000	0.179152
	32.860000	0.152842
	32.865000	0.287680
	32.870000	0.310701
	32.875000	0.179152
	32.880000	0.156131
	32.885000	0.284391
	32.890000	0.310701
	32.895000	0.175863
	32.900000	0.149554
	32.905000	0.287680
	32.910000	0.310701
	32.915000	0.179152
	32.920000	0.152842
	32.925000	0.281102
	32.930000	0.310701
	32.935000	0.179152
	32.940000	0.152842
	32.945000	0.284391
	32.950000	0.310701
	32.955000	0.179152
	32.960000	0.156131
	32.965000	0.287680
	32.970000	0.310701
	32.975000	0.179152
	32.980000	0.156131
	32.985000	0.281102
	32.990000	0.310701
	32.995000	0.179152
	33.000000	0.152842
	33.005000	0.284391
	33.010000	0.307412
	33.015000	0.179152
	33.020000	0.152842
	33.025000	0.287680
	33.030000	0.307412
	33.035000	0.175863
	33.040000	0.152842
	33.045000	0.287680
	33.050000	0.310701
	33.055000	0.175863
	33.060000	0.152842
	33.065000	0.284391
	33.070000	0.307412
	33.075000	0.179152
	33.080000	0.149554
	33.085000	0.284391
	33.090000	0.310701
	33.095000	0.179152
	33.100000	0.152842
	33.105000	0.284391
	33.110000	0.307412
	33.115000	0.182441
	33.120000	0.152842
	33.125000	0.287680
	33.130000	0.313990
	33.135000	0.175863
	33.140000	0.152842
	33.145000	0.284391
	33.150000	0.310701
	33.155000	0.179152
	33.160000	0.159420
	33.165000	0.287680
	33.170000	0.307412
	33.175000	0.175863
	33.180000	0.152842
	33.185000	0.281102
	33.190000	0.313990
	33.195000	0.179152
	33.200000	0.152842
	33.205000	0.281102
	33.210000	0.310701
	33.215000	0.179152
	33.220000	0.152842
	33.225000	0.281102
	33.230000	0.310701
	33.235000	0.179152
	33.240000	0.152842
	33.245000	0.281102
	33.250000	0.310701
	33.255000	0.179152
	33.260000	0.149554
	33.265000	0.277814
	33.270000	0.310701
	33.275000	0.175863
	33.280000	0.149554
	33.285000	0.281102
	33.290000	0.310701
	33.295000	0.175863
	33.300000	0.152842
	33.305000	0.281102
	33.310000	0.307412
	33.315000	0.175863
	33.320000	0.152842
	33.325000	0.281102
	33.330000	0.310701
	33.335000	0.172575
	33.340000	0.149554
	33.345000	0.281102
	33.350000	0.310701
	33.355000	0.179152
	33.360000	0.152842
	33.365000	0.281102
	33.370000	0.307412
	33.375000	0.179152
	33.380000	0.149554
	33.385000	0.284391
	33.390000	0.310701
	33.395000	0.175863
	33.400000	0.149554
	33.405000	0.284391
	33.410000	0.304124
	33.415000	0.175863
	33.420000	0.152842
	33.425000	0.281102
	33.430000	0.310701
	33.435000	0.175863
	33.440000	0.152842
	33.445000	0.281102
	33.450000	0.310701
	33.455000	0.175863
	33.460000	0.149554
	33.465000	0.284391
	33.470000	0.310701
	33.475000	0.182441
	33.480000	0.149554
	33.485000	0.281102
	33.490000	0.310701
	33.495000	0.179152
	33.500000	0.149554
	33.505000	0.277814
	33.510000	0.307412
	33.515000	0.182441
	33.520000	0.152842
	33.525000	0.281102
	33.530000	0.307412
	33.535000	0.175863
	33.540000	0.156131
	33.545000	0.281102
	33.550000	0.310701
	33.555000	0.179152
	33.560000	0.149554
	33.565000	0.281102
	33.570000	0.310701
	33.575000	0.175863
	33.580000	0.149554
	33.585000	0.281102
	33.590000	0.310701
	33.595000	0.179152
	33.600000	0.152842
	33.605000	0.281102
	33.610000	0.313990
	33.615000	0.175863
	33.620000	0.149554
	33.625000	0.281102
	33.630000	0.313990
	33.635000	0.185730
	33.640000	0.149554
	33.645000	0.277814
	33.650000	0.310701
	33.655000	0.182441
	33.660000	0.149554
	33.665000	0.281102
	33.670000	0.307412
	33.675000	0.179152
	33.680000	0.149554
	33.685000	0.274525
	33.690000	0.310701
	33.695000	0.182441
	33.700000	0.146265
	33.705000	0.277814
	33.710000	0.310701
	33.715000	0.179152
	33.720000	0.146265
	33.725000	0.277814
	33.730000	0.310701
	33.735000	0.179152
	33.740000	0.146265
	33.745000	0.281102
	33.750000	0.310701
	33.755000	0.182441
	33.760000	0.142976
	33.765000	0.277814
	33.770000	0.310701
	33.775000	0.182441
	33.780000	0.146265
	33.785000	0.274525
	33.790000	0.307412
	33.795000	0.182441
	33.800000	0.146265
	33.805000	0.277814
	33.810000	0.304124
	33.815000	0.182441
	33.820000	0.149554
	33.825000	0.277814
	33.830000	0.310701
	33.835000	0.179152
	33.840000	0.146265
	33.845000	0.277814
	33.850000	0.307412
	33.855000	0.182441
	33.860000	0.149554
	33.865000	0.277814
	33.870000	0.307412
	33.875000	0.175863
	33.880000	0.146265
	33.885000	0.274525
	33.890000	0.307412
	33.895000	0.179152
	33.900000	0.149554
	33.905000	0.277814
	33.910000	0.307412
	33.915000	0.175863
	33.920000	0.146265
	33.925000	0.274525
	33.930000	0.307412
	33.935000	0.179152
	33.940000	0.146265
	33.945000	0.277814
	33.950000	0.310701
	33.955000	0.175863
	33.960000	0.149554
	33.965000	0.277814
	33.970000	0.304124
	33.975000	0.179152
	33.980000	0.146265
	33.985000	0.277814
	33.990000	0.304124
	33.995000	0.175863
	34.000000	0.142976
	34.005000	0.274525
	34.010000	0.307412
	34.015000	0.175863
	34.020000	0.149554
	34.025000	0.274525
	34.030000	0.307412
	34.035000	0.182441
	34.040000	0.146265
	34.045000	0.274525
	34.050000	0.307412
	34.055000	0.175863
	34.060000	0.146265
	34.065000	0.271236
	34.070000	0.300835
	34.075000	0.182441
	34.080000	0.142976
	34.085000	0.274525
	34.090000	0.307412
	34.095000	0.179152
	34.100000	0.146265
	34.105000	0.274525
	34.110000	0.307412
	34.115000	0.175863
	34.120000	0.142976
	34.125000	0.274525
	34.130000	0.310701
	34.135000	0.179152
	34.140000	0.142976
	34.145000	0.271236
	34.150000	0.307412
	34.155000	0.175863
	34.160000	0.146265
	34.165000	0.271236
	34.170000	0.310701
	34.175000	0.182441
	34.180000	0.146265
	34.185000	0.274525
	34.190000	0.304124
	34.195000	0.182441
	34.200000	0.146265
	34.205000	0.271236
	34.210000	0.307412
	34.215000	0.182441
	34.220000	0.142976
	34.225000	0.274525
	34.230000	0.307412
	34.235000	0.182441
	34.240000	0.146265
	34.245000	0.271236
	34.250000	0.310701
	34.255000	0.179152
	34.260000	0.146265
	34.265000	0.274525
	34.270000	0.310701
	34.275000	0.179152
	34.280000	0.146265
	34.285000	0.277814
	34.290000	0.310701
	34.295000	0.182441
	34.300000	0.146265
	34.305000	0.274525
	34.310000	0.310701
	34.315000	0.182441
	34.320000	0.146265
	34.325000	0.274525
	34.330000	0.310701
	34.335000	0.182441
	34.340000	0.146265
	34.345000	0.274525
	34.350000	0.307412
	34.355000	0.182441
	34.360000	0.142976
	34.365000	0.274525
	34.370000	0.310701
	34.375000	0.179152
	34.380000	0.142976
	34.385000	0.274525
	34.390000	0.307412
	34.395000	0.185730
	34.400000	0.149554
	34.405000	0.274525
	34.410000	0.313990
	34.415000	0.179152
	34.420000	0.146265
	34.425000	0.274525
	34.430000	0.310701
	34.435000	0.182441
	34.440000	0.142976
	34.445000	0.274525
	34.450000	0.307412
	34.455000	0.179152
	34.460000	0.142976
	34.465000	0.267948
	34.470000	0.307412
	34.475000	0.182441
	34.480000	0.142976
	34.485000	0.274525
	34.490000	0.310701
	34.495000	0.182441
	34.500000	0.146265
	34.505000	0.274525
	34.510000	0.313990
	34.515000	0.182441
	34.520000	0.149554
	34.525000	0.271236
	34.530000	0.313990
	34.535000	0.182441
	34.540000	0.146265
	34.545000	0.274525
	34.550000	0.313990
	34.555000	0.182441
	34.560000	0.146265
	34.565000	0.271236
	34.570000	0.310701
	34.575000	0.182441
	34.580000	0.142976
	34.585000	0.274525
	34.590000	0.310701
	34.595000	0.179152
	34.600000	0.142976
	34.605000	0.271236
	34.610000	0.313990
	34.615000	0.179152
	34.620000	0.146265
	34.625000	0.267948
	34.630000	0.313990
	34.635000	0.179152
	34.640000	0.146265
	34.645000	0.274525
	34.650000	0.310701
	34.655000	0.182441
	34.660000	0.142976
	34.665000	0.271236
	34.670000	0.310701
	34.675000	0.179152
	34.680000	0.146265
	34.685000	0.267948
	34.690000	0.307412
	34.695000	0.185730
	34.700000	0.142976
	34.705000	0.271236
	34.710000	0.310701
	34.715000	0.182441
	34.720000	0.142976
	34.725000	0.267948
	34.730000	0.310701
	34.735000	0.185730
	34.740000	0.142976
	34.745000	0.267948
	34.750000	0.307412
	34.755000	0.185730
	34.760000	0.142976
	34.765000	0.271236
	34.770000	0.304124
	34.775000	0.185730
	34.780000	0.142976
	34.785000	0.267948
	34.790000	0.310701
	34.795000	0.182441
	34.800000	0.142976
	34.805000	0.264659
	34.810000	0.313990
	34.815000	0.179152
	34.820000	0.146265
	34.825000	0.267948
	34.830000	0.307412
	34.835000	0.185730
	34.840000	0.142976
	34.845000	0.264659
	34.850000	0.307412
	34.855000	0.182441
	34.860000	0.142976
	34.865000	0.267948
	34.870000	0.307412
	34.875000	0.182441
	34.880000	0.142976
	34.885000	0.267948
	34.890000	0.310701
	34.895000	0.182441
	34.900000	0.142976
	34.905000	0.264659
	34.910000	0.313990
	34.915000	0.182441
	34.920000	0.142976
	34.925000	0.264659
	34.930000	0.307412
	34.935000	0.182441
	34.940000	0.142976
	34.945000	0.267948
	34.950000	0.310701
	34.955000	0.182441
	34.960000	0.142976
	34.965000	0.267948
	34.970000	0.310701
	34.975000	0.182441
	34.980000	0.139687
	34.985000	0.267948
	34.990000	0.310701
	34.995000	0.185730
	35.000000	0.142976
	35.005000	0.261370
	35.010000	0.307412
	35.015000	0.185730
	35.020000	0.142976
	35.025000	0.274525
	35.030000	0.310701
	35.035000	0.185730
	35.040000	0.142976
	35.045000	0.267948
	35.050000	0.310701
	35.055000	0.185730
	35.060000	0.142976
	35.065000	0.264659
	35.070000	0.310701
	35.075000	0.185730
	35.080000	0.142976
	35.085000	0.264659
	35.090000	0.307412
	35.095000	0.182441
	35.100000	0.136399
	35.105000	0.264659
	35.110000	0.310701
	35.115000	0.189018
	35.120000	0.142976
	35.125000	0.261370
	35.130000	0.307412
	35.135000	0.182441
	35.140000	0.136399
	35.145000	0.264659
	35.150000	0.310701
	35.155000	0.182441
	35.160000	0.139687
	35.165000	0.267948
	35.170000	0.310701
	35.175000	0.185730
	35.180000	0.142976
	35.185000	0.261370
	35.190000	0.310701
	35.195000	0.185730
	35.200000	0.133110
	35.205000	0.261370
	35.210000	0.307412
	35.215000	0.185730
	35.220000	0.142976
	35.225000	0.258081
	35.230000	0.307412
	35.235000	0.182441
	35.240000	0.139687
	35.245000	0.264659
	35.250000	0.307412
	35.255000	0.185730
	35.260000	0.139687
	35.265000	0.258081
	35.270000	0.307412
	35.275000	0.182441
	35.280000	0.136399
	35.285000	0.261370
	35.290000	0.307412
	35.295000	0.182441
	35.300000	0.136399
	35.305000	0.261370
	35.310000	0.307412
	35.315000	0.182441
	35.320000	0.136399
	35.325000	0.258081
	35.330000	0.307412
	35.335000	0.189018
	35.340000	0.136399
	35.345000	0.261370
	35.350000	0.307412
	35.355000	0.179152
	35.360000	0.139687
	35.365000	0.258081
	35.370000	0.307412
	35.375000	0.182441
	35.380000	0.133110
	35.385000	0.261370
	35.390000	0.307412
	35.395000	0.182441
	35.400000	0.133110
	35.405000	0.254793
	35.410000	0.307412
	35.415000	0.179152
	35.420000	0.136399
	35.425000	0.258081
	35.430000	0.307412
	35.435000	0.182441
	35.440000	0.136399
	35.445000	0.258081
	35.450000	0.304124
	35.455000	0.182441
	35.460000	0.136399
	35.465000	0.254793
	35.470000	0.310701
	35.475000	0.182441
	35.480000	0.133110
	35.485000	0.254793
	35.490000	0.300835
	35.495000	0.179152
	35.500000	0.129821
	35.505000	0.254793
	35.510000	0.300835
	35.515000	0.182441
	35.520000	0.129821
	35.525000	0.254793
	35.530000	0.304124
	35.535000	0.179152
	35.540000	0.133110
	35.545000	0.254793
	35.550000	0.307412
	35.555000	0.179152
	35.560000	0.129821
	35.565000	0.251504
	35.570000	0.307412
	35.575000	0.182441
	35.580000	0.129821
	35.585000	0.251504
	35.590000	0.304124
	35.595000	0.179152
	35.600000	0.129821
	35.605000	0.251504
	35.610000	0.304124
	35.615000	0.182441
	35.620000	0.129821
	35.625000	0.254793
	35.630000	0.304124
	35.635000	0.175863
	35.640000	0.126533
	35.645000	0.251504
	35.650000	0.300835
	35.655000	0.179152
	35.660000	0.129821
	35.665000	0.248215
	35.670000	0.300835
	35.675000	0.175863
	35.680000	0.126533
	35.685000	0.248215
	35.690000	0.300835
	35.695000	0.175863
	35.700000	0.129821
	35.705000	0.248215
	35.710000	0.300835
	35.715000	0.175863
	35.720000	0.129821
	35.725000	0.254793
	35.730000	0.300835
	35.735000	0.179152
	35.740000	0.129821
	35.745000	0.251504
	35.750000	0.304124
	35.755000	0.182441
	35.760000	0.126533
	35.765000	0.254793
	35.770000	0.300835
	35.775000	0.179152
	35.780000	0.129821
	35.785000	0.251504
	35.790000	0.300835
	35.795000	0.182441
	35.800000	0.129821
	35.805000	0.251504
	35.810000	0.304124
	35.815000	0.182441
	35.820000	0.136399
	35.825000	0.258081
	35.830000	0.307412
	35.835000	0.185730
	35.840000	0.136399
	35.845000	0.254793
	35.850000	0.313990
	35.855000	0.185730
	35.860000	0.136399
	35.865000	0.258081
	35.870000	0.313990
	35.875000	0.189018
	35.880000	0.136399
	35.885000	0.254793
	35.890000	0.310701
	35.895000	0.189018
	35.900000	0.136399
	35.905000	0.254793
	35.910000	0.307412
	35.915000	0.189018
	35.920000	0.136399
	35.925000	0.254793
	35.930000	0.307412
	35.935000	0.189018
	35.940000	0.133110
	35.945000	0.258081
	35.950000	0.307412
	35.955000	0.182441
	35.960000	0.129821
	35.965000	0.251504
	35.970000	0.307412
	35.975000	0.179152
	35.980000	0.126533
	35.985000	0.244927
	35.990000	0.300835
	35.995000	0.175863
	36.000000	0.119955
	36.005000	0.241638
	36.010000	0.294257
	36.015000	0.175863
	36.020000	0.119955
	36.025000	0.244927
	36.030000	0.297546
	36.035000	0.179152
	36.040000	0.123244
	36.045000	0.244927
	36.050000	0.297546
	36.055000	0.175863
	36.060000	0.119955
	36.065000	0.241638
	36.070000	0.300835
	36.075000	0.179152
	36.080000	0.126533
	36.085000	0.248215
	36.090000	0.304124
	36.095000	0.179152
	36.100000	0.126533
	36.105000	0.244927
	36.110000	0.300835
	36.115000	0.179152
	36.120000	0.123244
	36.125000	0.244927
	36.130000	0.300835
	36.135000	0.179152
	36.140000	0.126533
	36.145000	0.244927
	36.150000	0.297546
	36.155000	0.179152
	36.160000	0.123244
	36.165000	0.241638
	36.170000	0.294257
	36.175000	0.175863
	36.180000	0.126533
	36.185000	0.244927
	36.190000	0.300835
	36.195000	0.179152
	36.200000	0.123244
	36.205000	0.241638
	36.210000	0.300835
	36.215000	0.179152
	36.220000	0.123244
	36.225000	0.244927
	36.230000	0.300835
	36.235000	0.182441
	36.240000	0.126533
	36.245000	0.244927
	36.250000	0.304124
	36.255000	0.185730
	36.260000	0.129821
	36.265000	0.244927
	36.270000	0.307412
	36.275000	0.189018
	36.280000	0.133110
	36.285000	0.251504
	36.290000	0.317278
	36.295000	0.192307
	36.300000	0.136399
	36.305000	0.258081
	36.310000	0.313990
	36.315000	0.198884
	36.320000	0.136399
	36.325000	0.258081
	36.330000	0.317278
	36.335000	0.198884
	36.340000	0.136399
	36.345000	0.261370
	36.350000	0.313990
	36.355000	0.198884
	36.360000	0.136399
	36.365000	0.258081
	36.370000	0.317278
	36.375000	0.195596
	36.380000	0.136399
	36.385000	0.251504
	36.390000	0.307412
	36.395000	0.189018
	36.400000	0.133110
	36.405000	0.248215
	36.410000	0.304124
	36.415000	0.185730
	36.420000	0.133110
	36.425000	0.244927
	36.430000	0.304124
	36.435000	0.189018
	36.440000	0.126533
	36.445000	0.244927
	36.450000	0.304124
	36.455000	0.189018
	36.460000	0.126533
	36.465000	0.248215
	36.470000	0.310701
	36.475000	0.192307
	36.480000	0.129821
	36.485000	0.251504
	36.490000	0.313990
	36.495000	0.192307
	36.500000	0.139687
	36.505000	0.258081
	36.510000	0.317278
	36.515000	0.195596
	36.520000	0.136399
	36.525000	0.258081
	36.530000	0.310701
	36.535000	0.195596
	36.540000	0.142976
	36.545000	0.254793
	36.550000	0.317278
	36.555000	0.198884
	36.560000	0.133110
	36.565000	0.254793
	36.570000	0.313990
	36.575000	0.198884
	36.580000	0.136399
	36.585000	0.251504
	36.590000	0.317278
	36.595000	0.198884
	36.600000	0.133110
	36.605000	0.248215
	36.610000	0.307412
	36.615000	0.192307
	36.620000	0.129821
	36.625000	0.244927
	36.630000	0.310701
	36.635000	0.185730
	36.640000	0.126533
	36.645000	0.248215
	36.650000	0.307412
	36.655000	0.189018
	36.660000	0.123244
	36.665000	0.244927
	36.670000	0.307412
	36.675000	0.189018
	36.680000	0.123244
	36.685000	0.241638
	36.690000	0.304124
	36.695000	0.185730
	36.700000	0.123244
	36.705000	0.238349
	36.710000	0.300835
	36.715000	0.185730
	36.720000	0.119955
	36.725000	0.238349
	36.730000	0.300835
	36.735000	0.182441
	36.740000	0.119955
	36.745000	0.238349
	36.750000	0.297546
	36.755000	0.182441
	36.760000	0.116666
	36.765000	0.231772
	36.770000	0.300835
	36.775000	0.182441
	36.780000	0.123244
	36.785000	0.235060
	36.790000	0.294257
	36.795000	0.182441
	36.800000	0.116666
	36.805000	0.238349
	36.810000	0.300835
	36.815000	0.182441
	36.820000	0.119955
	36.825000	0.235060
	36.830000	0.300835
	36.835000	0.182441
	36.840000	0.116666
	36.845000	0.231772
	36.850000	0.300835
	36.855000	0.182441
	36.860000	0.116666
	36.865000	0.231772
	36.870000	0.294257
	36.875000	0.185730
	36.880000	0.116666
	36.885000	0.231772
	36.890000	0.297546
	36.895000	0.182441
	36.900000	0.119955
	36.905000	0.235060
	36.910000	0.300835
	36.915000	0.185730
	36.920000	0.123244
	36.925000	0.235060
	36.930000	0.304124
	36.935000	0.189018
	36.940000	0.119955
	36.945000	0.241638
	36.950000	0.304124
	36.955000	0.185730
	36.960000	0.123244
	36.965000	0.235060
	36.970000	0.304124
	36.975000	0.195596
	36.980000	0.119955
	36.985000	0.238349
	36.990000	0.307412
	36.995000	0.189018
	37.000000	0.123244
	37.005000	0.241638
	37.010000	0.300835
	37.015000	0.192307
	37.020000	0.129821
	37.025000	0.238349
	37.030000	0.300835
	37.035000	0.185730
	37.040000	0.123244
	37.045000	0.238349
	37.050000	0.304124
	37.055000	0.192307
	37.060000	0.123244
	37.065000	0.235060
	37.070000	0.300835
	37.075000	0.189018
	37.080000	0.123244
	37.085000	0.231772
	37.090000	0.300835
	37.095000	0.189018
	37.100000	0.119955
	37.105000	0.238349
	37.110000	0.297546
	37.115000	0.185730
	37.120000	0.116666
	37.125000	0.231772
	37.130000	0.294257
	37.135000	0.185730
	37.140000	0.116666
	37.145000	0.228483
	37.150000	0.294257
	37.155000	0.179152
	37.160000	0.110089
	37.165000	0.225194
	37.170000	0.294257
	37.175000	0.179152
	37.180000	0.103511
	37.185000	0.221905
	37.190000	0.287680
	37.195000	0.175863
	37.200000	0.103511
	37.205000	0.221905
	37.210000	0.287680
	37.215000	0.169286
	37.220000	0.106800
	37.225000	0.221905
	37.230000	0.284391
	37.235000	0.169286
	37.240000	0.103511
	37.245000	0.218617
	37.250000	0.287680
	37.255000	0.172575
	37.260000	0.103511
	37.265000	0.218617
	37.270000	0.287680
	37.275000	0.172575
	37.280000	0.103511
	37.285000	0.218617
	37.290000	0.287680
	37.295000	0.175863
	37.300000	0.110089
	37.305000	0.221905
	37.310000	0.287680
	37.315000	0.179152
	37.320000	0.103511
	37.325000	0.218617
	37.330000	0.287680
	37.335000	0.179152
	37.340000	0.106800
	37.345000	0.225194
	37.350000	0.290969
	37.355000	0.182441
	37.360000	0.106800
	37.365000	0.225194
	37.370000	0.294257
	37.375000	0.179152
	37.380000	0.110089
	37.385000	0.221905
	37.390000	0.294257
	37.395000	0.179152
	37.400000	0.110089
	37.405000	0.225194
	37.410000	0.294257
	37.415000	0.182441
	37.420000	0.110089
	37.425000	0.221905
	37.430000	0.294257
	37.435000	0.182441
	37.440000	0.110089
	37.445000	0.225194
	37.450000	0.294257
	37.455000	0.182441
	37.460000	0.106800
	37.465000	0.225194
	37.470000	0.294257
	37.475000	0.182441
	37.480000	0.113378
	37.485000	0.221905
	37.490000	0.294257
	37.495000	0.179152
	37.500000	0.110089
	37.505000	0.225194
	37.510000	0.300835
	37.515000	0.179152
	37.520000	0.106800
	37.525000	0.221905
	37.530000	0.294257
	37.535000	0.182441
	37.540000	0.113378
	37.545000	0.221905
	37.550000	0.290969
	37.555000	0.185730
	37.560000	0.110089
	37.565000	0.221905
	37.570000	0.294257
	37.575000	0.182441
	37.580000	0.110089
	37.585000	0.218617
	37.590000	0.294257
	37.595000	0.182441
	37.600000	0.113378
	37.605000	0.221905
	37.610000	0.294257
	37.615000	0.185730
	37.620000	0.110089
	37.625000	0.221905
	37.630000	0.290969
	37.635000	0.185730
	37.640000	0.110089
	37.645000	0.221905
	37.650000	0.294257
	37.655000	0.189018
	37.660000	0.110089
	37.665000	0.225194
	37.670000	0.294257
	37.675000	0.182441
	37.680000	0.116666
	37.685000	0.221905
	37.690000	0.297546
	37.695000	0.182441
	37.700000	0.106800
	37.705000	0.221905
	37.710000	0.297546
	37.715000	0.185730
	37.720000	0.110089
	37.725000	0.218617
	37.730000	0.297546
	37.735000	0.182441
	37.740000	0.110089
	37.745000	0.221905
	37.750000	0.297546
	37.755000	0.185730
	37.760000	0.110089
	37.765000	0.221905
	37.770000	0.297546
	37.775000	0.185730
	37.780000	0.110089
	37.785000	0.221905
	37.790000	0.294257
	37.795000	0.185730
	37.800000	0.113378
	37.805000	0.221905
	37.810000	0.294257
	37.815000	0.185730
	37.820000	0.110089
	37.825000	0.218617
	37.830000	0.300835
	37.835000	0.189018
	37.840000	0.113378
	37.845000	0.218617
	37.850000	0.294257
	37.855000	0.185730
	37.860000	0.106800
	37.865000	0.221905
	37.870000	0.290969
	37.875000	0.185730
	37.880000	0.113378
	37.885000	0.225194
	37.890000	0.294257
	37.895000	0.189018
	37.900000	0.110089
	37.905000	0.221905
	37.910000	0.297546
	37.915000	0.182441
	37.920000	0.110089
	37.925000	0.221905
	37.930000	0.294257
	37.935000	0.185730
	37.940000	0.106800
	37.945000	0.218617
	37.950000	0.294257
	37.955000	0.185730
	37.960000	0.113378
	37.965000	0.215328
	37.970000	0.294257
	37.975000	0.189018
	37.980000	0.110089
	37.985000	0.215328
	37.990000	0.297546
	37.995000	0.185730
	38.000000	0.116666
	38.005000	0.218617
	38.010000	0.294257
	38.015000	0.185730
	38.020000	0.113378
	38.025000	0.221905
	38.030000	0.290969
	38.035000	0.182441
	38.040000	0.106800
	38.045000	0.221905
	38.050000	0.297546
	38.055000	0.189018
	38.060000	0.113378
	38.065000	0.215328
	38.070000	0.294257
	38.075000	0.189018
	38.080000	0.110089
	38.085000	0.215328
	38.090000	0.297546
	38.095000	0.185730
	38.100000	0.110089
	38.105000	0.221905
	38.110000	0.290969
	38.115000	0.185730
	38.120000	0.110089
	38.125000	0.215328
	38.130000	0.294257
	38.135000	0.189018
	38.140000	0.110089
	38.145000	0.215328
	38.150000	0.300835
	38.155000	0.185730
	38.160000	0.110089
	38.165000	0.221905
	38.170000	0.297546
	38.175000	0.189018
	38.180000	0.110089
	38.185000	0.215328
	38.190000	0.297546
	38.195000	0.189018
	38.200000	0.110089
	38.205000	0.221905
	38.210000	0.297546
	38.215000	0.192307
	38.220000	0.106800
	38.225000	0.212039
	38.230000	0.297546
	38.235000	0.189018
	38.240000	0.110089
	38.245000	0.215328
	38.250000	0.294257
	38.255000	0.185730
	38.260000	0.110089
	38.265000	0.215328
	38.270000	0.300835
	38.275000	0.189018
	38.280000	0.110089
	38.285000	0.218617
	38.290000	0.297546
	38.295000	0.192307
	38.300000	0.110089
	38.305000	0.215328
	38.310000	0.297546
	38.315000	0.189018
	38.320000	0.110089
	38.325000	0.215328
	38.330000	0.297546
	38.335000	0.189018
	38.340000	0.110089
	38.345000	0.215328
	38.350000	0.294257
	38.355000	0.189018
	38.360000	0.110089
	38.365000	0.215328
	38.370000	0.294257
	38.375000	0.192307
	38.380000	0.110089
	38.385000	0.215328
	38.390000	0.300835
	38.395000	0.189018
	38.400000	0.113378
	38.405000	0.218617
	38.410000	0.290969
	38.415000	0.192307
	38.420000	0.113378
	38.425000	0.218617
	38.430000	0.294257
	38.435000	0.189018
	38.440000	0.110089
	38.445000	0.215328
	38.450000	0.294257
	38.455000	0.195596
	38.460000	0.110089
	38.465000	0.215328
	38.470000	0.297546
	38.475000	0.189018
	38.480000	0.106800
	38.485000	0.208751
	38.490000	0.294257
	38.495000	0.189018
	38.500000	0.110089
	38.505000	0.212039
	38.510000	0.297546
	38.515000	0.189018
	38.520000	0.110089
	38.525000	0.218617
	38.530000	0.300835
	38.535000	0.195596
	38.540000	0.106800
	38.545000	0.212039
	38.550000	0.294257
	38.555000	0.195596
	38.560000	0.110089
	38.565000	0.218617
	38.570000	0.294257
	38.575000	0.192307
	38.580000	0.110089
	38.585000	0.212039
	38.590000	0.294257
	38.595000	0.195596
	38.600000	0.106800
	38.605000	0.208751
	38.610000	0.294257
	38.615000	0.189018
	38.620000	0.106800
	38.625000	0.215328
	38.630000	0.294257
	38.635000	0.192307
	38.640000	0.106800
	38.645000	0.215328
	38.650000	0.294257
	38.655000	0.195596
	38.660000	0.106800
	38.665000	0.212039
	38.670000	0.297546
	38.675000	0.192307
	38.680000	0.106800
	38.685000	0.208751
	38.690000	0.294257
	38.695000	0.192307
	38.700000	0.106800
	38.705000	0.212039
	38.710000	0.297546
	38.715000	0.192307
	38.720000	0.106800
	38.725000	0.208751
	38.730000	0.294257
	38.735000	0.189018
	38.740000	0.106800
	38.745000	0.212039
	38.750000	0.297546
	38.755000	0.198884
	38.760000	0.110089
	38.765000	0.212039
	38.770000	0.294257
	38.775000	0.192307
	38.780000	0.106800
	38.785000	0.212039
	38.790000	0.297546
	38.795000	0.195596
	38.800000	0.106800
	38.805000	0.212039
	38.810000	0.297546
	38.815000	0.198884
	38.820000	0.106800
	38.825000	0.212039
	38.830000	0.297546
	38.835000	0.198884
	38.840000	0.106800
	38.845000	0.208751
	38.850000	0.290969
	38.855000	0.195596
	38.860000	0.110089
	38.865000	0.208751
	38.870000	0.294257
	38.875000	0.195596
	38.880000	0.106800
	38.885000	0.205462
	38.890000	0.297546
	38.895000	0.195596
	38.900000	0.110089
	38.905000	0.208751
	38.910000	0.290969
	38.915000	0.195596
	38.920000	0.103511
	38.925000	0.205462
	38.930000	0.294257
	38.935000	0.198884
	38.940000	0.106800
	38.945000	0.208751
	38.950000	0.294257
	38.955000	0.189018
	38.960000	0.103511
	38.965000	0.205462
	38.970000	0.294257
	38.975000	0.195596
	38.980000	0.106800
	38.985000	0.208751
	38.990000	0.294257
	38.995000	0.195596
	39.000000	0.103511
	39.005000	0.208751
	39.010000	0.294257
	39.015000	0.195596
	39.020000	0.106800
	39.025000	0.208751
	39.030000	0.294257
	39.035000	0.192307
	39.040000	0.106800
	39.045000	0.208751
	39.050000	0.294257
	39.055000	0.198884
	39.060000	0.106800
	39.065000	0.208751
	39.070000	0.297546
	39.075000	0.198884
	39.080000	0.106800
	39.085000	0.205462
	39.090000	0.294257
	39.095000	0.195596
	39.100000	0.106800
	39.105000	0.205462
	39.110000	0.294257
	39.115000	0.195596
	39.120000	0.106800
	39.125000	0.208751
	39.130000	0.294257
	39.135000	0.202173
	39.140000	0.106800
	39.145000	0.208751
	39.150000	0.294257
	39.155000	0.195596
	39.160000	0.110089
	39.165000	0.208751
	39.170000	0.297546
	39.175000	0.198884
	39.180000	0.106800
	39.185000	0.205462
	39.190000	0.294257
	39.195000	0.198884
	39.200000	0.106800
	39.205000	0.205462
	39.210000	0.294257
	39.215000	0.198884
	39.220000	0.110089
	39.225000	0.208751
	39.230000	0.300835
	39.235000	0.195596
	39.240000	0.106800
	39.245000	0.202173
	39.250000	0.297546
	39.255000	0.198884
	39.260000	0.106800
	39.265000	0.208751
	39.270000	0.294257
	39.275000	0.195596
	39.280000	0.106800
	39.285000	0.208751
	39.290000	0.294257
	39.295000	0.198884
	39.300000	0.103511
	39.305000	0.205462
	39.310000	0.297546
	39.315000	0.198884
	39.320000	0.106800
	39.325000	0.205462
	39.330000	0.297546
	39.335000	0.202173
	39.340000	0.106800
	39.345000	0.205462
	39.350000	0.297546
	39.355000	0.198884
	39.360000	0.106800
	39.365000	0.208751
	39.370000	0.294257
	39.375000	0.202173
	39.380000	0.110089
	39.385000	0.205462
	39.390000	0.294257
	39.395000	0.202173
	39.400000	0.106800
	39.405000	0.208751
	39.410000	0.297546
	39.415000	0.202173
	39.420000	0.110089
	39.425000	0.205462
	39.430000	0.300835
	39.435000	0.202173
	39.440000	0.106800
	39.445000	0.208751
	39.450000	0.294257
	39.455000	0.202173
	39.460000	0.110089
	39.465000	0.202173
	39.470000	0.297546
	39.475000	0.205462
	39.480000	0.106800
	39.485000	0.208751
	39.490000	0.294257
	39.495000	0.198884
	39.500000	0.106800
	39.505000	0.202173
	39.510000	0.294257
	39.515000	0.198884
	39.520000	0.106800
	39.525000	0.202173
	39.530000	0.300835
	39.535000	0.198884
	39.540000	0.113378
	39.545000	0.208751
	39.550000	0.300835
	39.555000	0.198884
	39.560000	0.110089
	39.565000	0.205462
	39.570000	0.294257
	39.575000	0.205462
	39.580000	0.106800
	39.585000	0.202173
	39.590000	0.297546
	39.595000	0.198884
	39.600000	0.110089
	39.605000	0.205462
	39.610000	0.297546
	39.615000	0.205462
	39.620000	0.110089
	39.625000	0.205462
	39.630000	0.297546
	39.635000	0.202173
	39.640000	0.106800
	39.645000	0.202173
	39.650000	0.294257
	39.655000	0.205462
	39.660000	0.110089
	39.665000	0.205462
	39.670000	0.297546
	39.675000	0.202173
	39.680000	0.106800
	39.685000	0.202173
	39.690000	0.294257
	39.695000	0.208751
	39.700000	0.113378
	39.705000	0.202173
	39.710000	0.297546
	39.715000	0.205462
	39.720000	0.106800
	39.725000	0.202173
	39.730000	0.297546
	39.735000	0.205462
	39.740000	0.110089
	39.745000	0.202173
	39.750000	0.294257
	39.755000	0.202173
	39.760000	0.106800
	39.765000	0.202173
	39.770000	0.297546
	39.775000	0.198884
	39.780000	0.106800
	39.785000	0.202173
	39.790000	0.300835
	39.795000	0.205462
	39.800000	0.106800
	39.805000	0.202173
	39.810000	0.294257
	39.815000	0.205462
	39.820000	0.106800
	39.825000	0.198884
	39.830000	0.297546
	39.835000	0.202173
	39.840000	0.106800
	39.845000	0.202173
	39.850000	0.294257
	39.855000	0.205462
	39.860000	0.110089
	39.865000	0.198884
	39.870000	0.294257
	39.875000	0.205462
	39.880000	0.100223
	39.885000	0.202173
	39.890000	0.300835
	39.895000	0.205462
	39.900000	0.103511
	39.905000	0.198884
	39.910000	0.297546
	39.915000	0.202173
	39.920000	0.106800
	39.925000	0.198884
	39.930000	0.300835
	39.935000	0.205462
	39.940000	0.110089
	39.945000	0.198884
	39.950000	0.294257
	39.955000	0.202173
	39.960000	0.103511
	39.965000	0.195596
	39.970000	0.294257
	39.975000	0.202173
	39.980000	0.106800
	39.985000	0.195596
	39.990000	0.297546
	39.995000	0.205462
	40.000000	0.103511
	40.005000	0.198884
	40.010000	0.294257
	40.015000	0.205462
	40.020000	0.103511
	40.025000	0.195596
	40.030000	0.290969
	40.035000	0.202173
	40.040000	0.106800
	40.045000	0.195596
	40.050000	0.294257
	40.055000	0.202173
	40.060000	0.103511
	40.065000	0.195596
	40.070000	0.294257
	40.075000	0.202173
	40.080000	0.103511
	40.085000	0.192307
	40.090000	0.290969
	40.095000	0.202173
	40.100000	0.103511
	40.105000	0.192307
	40.110000	0.290969
	40.115000	0.202173
	40.120000	0.103511
	40.125000	0.192307
	40.130000	0.290969
	40.135000	0.208751
	40.140000	0.103511
	40.145000	0.198884
	40.150000	0.294257
	40.155000	0.208751
	40.160000	0.103511
	40.165000	0.195596
	40.170000	0.290969
	40.175000	0.202173
	40.180000	0.096934
	40.185000	0.195596
	40.190000	0.290969
	40.195000	0.208751
	40.200000	0.106800
	40.205000	0.195596
	40.210000	0.294257
	40.215000	0.205462
	40.220000	0.106800
	40.225000	0.195596
	40.230000	0.300835
	40.235000	0.212039
	40.240000	0.110089
	40.245000	0.202173
	40.250000	0.307412
	40.255000	0.215328
	40.260000	0.116666
	40.265000	0.205462
	40.270000	0.307412
	40.275000	0.218617
	40.280000	0.116666
	40.285000	0.212039
	40.290000	0.310701
	40.295000	0.215328
	40.300000	0.123244
	40.305000	0.205462
	40.310000	0.307412
	40.315000	0.221905
	40.320000	0.123244
	40.325000	0.208751
	40.330000	0.310701
	40.335000	0.218617
	40.340000	0.119955
	40.345000	0.205462
	40.350000	0.304124
	40.355000	0.225194
	40.360000	0.113378
	40.365000	0.208751
	40.370000	0.304124
	40.375000	0.221905
	40.380000	0.116666
	40.385000	0.202173
	40.390000	0.307412
	40.395000	0.218617
	40.400000	0.116666
	40.405000	0.202173
	40.410000	0.297546
	40.415000	0.215328
	40.420000	0.116666
	40.425000	0.202173
	40.430000	0.300835
	40.435000	0.218617
	40.440000	0.110089
	40.445000	0.202173
	40.450000	0.300835
	40.455000	0.215328
	40.460000	0.110089
	40.465000	0.198884
	40.470000	0.297546
	40.475000	0.215328
	40.480000	0.110089
	40.485000	0.195596
	40.490000	0.297546
	40.495000	0.212039
	40.500000	0.113378
	40.505000	0.195596
	40.510000	0.297546
	40.515000	0.218617
	40.520000	0.106800
	40.525000	0.189018
	40.530000	0.290969
	40.535000	0.205462
	40.540000	0.100223
	40.545000	0.189018
	40.550000	0.290969
	40.555000	0.202173
	40.560000	0.096934
	40.565000	0.179152
	40.570000	0.281102
	40.575000	0.195596
	40.580000	0.090357
	40.585000	0.179152
	40.590000	0.284391
	40.595000	0.198884
	40.600000	0.096934
	40.605000	0.179152
	40.610000	0.287680
	40.615000	0.205462
	40.620000	0.093645
	40.625000	0.182441
	40.630000	0.284391
	40.635000	0.202173
	40.640000	0.103511
	40.645000	0.182441
	40.650000	0.287680
	40.655000	0.205462
	40.660000	0.100223
	40.665000	0.185730
	40.670000	0.287680
	40.675000	0.202173
	40.680000	0.100223
	40.685000	0.185730
	40.690000	0.290969
	40.695000	0.212039
	40.700000	0.106800
	40.705000	0.192307
	40.710000	0.294257
	40.715000	0.212039
	40.720000	0.110089
	40.725000	0.195596
	40.730000	0.300835
	40.735000	0.218617
	40.740000	0.113378
	40.745000	0.192307
	40.750000	0.294257
	40.755000	0.218617
	40.760000	0.110089
	40.765000	0.192307
	40.770000	0.297546
	40.775000	0.218617
	40.780000	0.103511
	40.785000	0.189018
	40.790000	0.294257
	40.795000	0.212039
	40.800000	0.110089
	40.805000	0.189018
	40.810000	0.290969
	40.815000	0.208751
	40.820000	0.103511
	40.825000	0.185730
	40.830000	0.287680
	40.835000	0.205462
	40.840000	0.100223
	40.845000	0.179152
	40.850000	0.284391
	40.855000	0.198884
	40.860000	0.096934
	40.865000	0.175863
	40.870000	0.277814
	40.875000	0.202173
	40.880000	0.090357
	40.885000	0.175863
	40.890000	0.281102
	40.895000	0.198884
	40.900000	0.096934
	40.905000	0.172575
	40.910000	0.277814
	40.915000	0.202173
	40.920000	0.093645
	40.925000	0.172575
	40.930000	0.281102
	40.935000	0.198884
	40.940000	0.093645
	40.945000	0.172575
	40.950000	0.284391
	40.955000	0.205462
	40.960000	0.100223
	40.965000	0.175863
	40.970000	0.294257
	40.975000	0.215328
	40.980000	0.106800
	40.985000	0.189018
	40.990000	0.297546
	40.995000	0.221905
	41.000000	0.116666
	41.005000	0.195596
	41.010000	0.304124
	41.015000	0.228483
	41.020000	0.119955
	41.025000	0.205462
	41.030000	0.307412
	41.035000	0.231772
	41.040000	0.119955
	41.045000	0.202173
	41.050000	0.307412
	41.055000	0.231772
	41.060000	0.123244
	41.065000	0.202173
	41.070000	0.310701
	41.075000	0.235060
	41.080000	0.123244
	41.085000	0.195596
	41.090000	0.304124
	41.095000	0.231772
	41.100000	0.123244
	41.105000	0.195596
	41.110000	0.300835
	41.115000	0.228483
	41.120000	0.116666
	41.125000	0.192307
	41.130000	0.307412
	41.135000	0.225194
	41.140000	0.113378
	41.145000	0.192307
	41.150000	0.297546
	41.155000	0.225194
	41.160000	0.113378
	41.165000	0.189018
	41.170000	0.297546
	41.175000	0.221905
	41.180000	0.113378
	41.185000	0.185730
	41.190000	0.294257
	41.195000	0.221905
	41.200000	0.106800
	41.205000	0.185730
	41.210000	0.294257
	41.215000	0.215328
	41.220000	0.106800
	41.225000	0.185730
	41.230000	0.290969
	41.235000	0.218617
	41.240000	0.103511
	41.245000	0.185730
	41.250000	0.290969
	41.255000	0.215328
	41.260000	0.106800
	41.265000	0.185730
	41.270000	0.294257
	41.275000	0.218617
	41.280000	0.106800
	41.285000	0.185730
	41.290000	0.294257
	41.295000	0.221905
	41.300000	0.103511
	41.305000	0.182441
	41.310000	0.290969
	41.315000	0.218617
	41.320000	0.106800
	41.325000	0.179152
	41.330000	0.294257
	41.335000	0.221905
	41.340000	0.110089
	41.345000	0.185730
	41.350000	0.290969
	41.355000	0.221905
	41.360000	0.106800
	41.365000	0.182441
	41.370000	0.290969
	41.375000	0.221905
	41.380000	0.110089
	41.385000	0.179152
	41.390000	0.290969
	41.395000	0.221905
	41.400000	0.106800
	41.405000	0.182441
	41.410000	0.294257
	41.415000	0.221905
	41.420000	0.106800
	41.425000	0.179152
	41.430000	0.297546
	41.435000	0.221905
	41.440000	0.106800
	41.445000	0.182441
	41.450000	0.294257
	41.455000	0.221905
	41.460000	0.106800
	41.465000	0.179152
	41.470000	0.297546
	41.475000	0.225194
	41.480000	0.110089
	41.485000	0.185730
	41.490000	0.297546
	41.495000	0.225194
	41.500000	0.110089
	41.505000	0.182441
	41.510000	0.300835
	41.515000	0.228483
	41.520000	0.110089
	41.525000	0.185730
	41.530000	0.297546
	41.535000	0.225194
	41.540000	0.113378
	41.545000	0.185730
	41.550000	0.297546
	41.555000	0.225194
	41.560000	0.116666
	41.565000	0.182441
	41.570000	0.294257
	41.575000	0.228483
	41.580000	0.113378
	41.585000	0.185730
	41.590000	0.290969
	41.595000	0.225194
	41.600000	0.106800
	41.605000	0.175863
	41.610000	0.290969
	41.615000	0.221905
	41.620000	0.106800
	41.625000	0.182441
	41.630000	0.290969
	41.635000	0.218617
	41.640000	0.103511
	41.645000	0.172575
	41.650000	0.284391
	41.655000	0.215328
	41.660000	0.103511
	41.665000	0.169286
	41.670000	0.284391
	41.675000	0.218617
	41.680000	0.100223
	41.685000	0.165997
	41.690000	0.281102
	41.695000	0.212039
	41.700000	0.093645
	41.705000	0.159420
	41.710000	0.274525
	41.715000	0.208751
	41.720000	0.093645
	41.725000	0.159420
	41.730000	0.274525
	41.735000	0.205462
	41.740000	0.087068
	41.745000	0.156131
	41.750000	0.274525
	41.755000	0.205462
	41.760000	0.093645
	41.765000	0.162708
	41.770000	0.274525
	41.775000	0.205462
	41.780000	0.090357
	41.785000	0.149554
	41.790000	0.271236
	41.795000	0.208751
	41.800000	0.090357
	41.805000	0.156131
	41.810000	0.274525
	41.815000	0.205462
	41.820000	0.090357
	41.825000	0.156131
	41.830000	0.274525
	41.835000	0.212039
	41.840000	0.087068
	41.845000	0.156131
	41.850000	0.267948
	41.855000	0.208751
	41.860000	0.090357
	41.865000	0.156131
	41.870000	0.274525
	41.875000	0.208751
	41.880000	0.090357
	41.885000	0.152842
	41.890000	0.271236
	41.895000	0.208751
	41.900000	0.093645
	41.905000	0.159420
	41.910000	0.277814
	41.915000	0.208751
	41.920000	0.093645
	41.925000	0.156131
	41.930000	0.274525
	41.935000	0.212039
	41.940000	0.093645
	41.945000	0.159420
	41.950000	0.277814
	41.955000	0.208751
	41.960000	0.090357
	41.965000	0.156131
	41.970000	0.274525
	41.975000	0.212039
	41.980000	0.096934
	41.985000	0.156131
	41.990000	0.274525
	41.995000	0.208751
	42.000000	0.093645
	42.005000	0.156131
	42.010000	0.274525
	42.015000	0.208751
	42.020000	0.093645
	42.025000	0.156131
	42.030000	0.274525
	42.035000	0.208751
	42.040000	0.093645
	42.045000	0.156131
	42.050000	0.274525
	42.055000	0.208751
	42.060000	0.090357
	42.065000	0.156131
	42.070000	0.274525
	42.075000	0.212039
	42.080000	0.090357
	42.085000	0.152842
	42.090000	0.274525
	42.095000	0.212039
	42.100000	0.090357
	42.105000	0.149554
	42.110000	0.271236
	42.115000	0.212039
	42.120000	0.090357
	42.125000	0.152842
	42.130000	0.274525
	42.135000	0.212039
	42.140000	0.090357
	42.145000	0.152842
	42.150000	0.277814
	42.155000	0.215328
	42.160000	0.087068
	42.165000	0.149554
	42.170000	0.267948
	42.175000	0.212039
	42.180000	0.093645
	42.185000	0.142976
	42.190000	0.274525
	42.195000	0.212039
	42.200000	0.090357
	42.205000	0.156131
	42.210000	0.274525
	42.215000	0.212039
	42.220000	0.090357
	42.225000	0.152842
	42.230000	0.267948
	42.235000	0.208751
	42.240000	0.093645
	42.245000	0.152842
	42.250000	0.267948
	42.255000	0.212039
	42.260000	0.090357
	42.265000	0.149554
	42.270000	0.274525
	42.275000	0.215328
	42.280000	0.093645
	42.285000	0.149554
	42.290000	0.271236
	42.295000	0.212039
	42.300000	0.090357
	42.305000	0.149554
	42.310000	0.271236
	42.315000	0.212039
	42.320000	0.090357
	42.325000	0.149554
	42.330000	0.271236
	42.335000	0.212039
	42.340000	0.093645
	42.345000	0.149554
	42.350000	0.274525
	42.355000	0.215328
	42.360000	0.093645
	42.365000	0.149554
	42.370000	0.271236
	42.375000	0.212039
	42.380000	0.090357
	42.385000	0.152842
	42.390000	0.267948
	42.395000	0.218617
	42.400000	0.093645
	42.405000	0.152842
	42.410000	0.271236
	42.415000	0.212039
	42.420000	0.090357
	42.425000	0.152842
	42.430000	0.274525
	42.435000	0.218617
	42.440000	0.093645
	42.445000	0.146265
	42.450000	0.271236
	42.455000	0.215328
	42.460000	0.093645
	42.465000	0.152842
	42.470000	0.271236
	42.475000	0.215328
	42.480000	0.093645
	42.485000	0.149554
	42.490000	0.274525
	42.495000	0.212039
	42.500000	0.093645
	42.505000	0.146265
	42.510000	0.267948
	42.515000	0.218617
	42.520000	0.093645
	42.525000	0.149554
	42.530000	0.271236
	42.535000	0.215328
	42.540000	0.093645
	42.545000	0.146265
	42.550000	0.267948
	42.555000	0.215328
	42.560000	0.093645
	42.565000	0.146265
	42.570000	0.271236
	42.575000	0.215328
	42.580000	0.093645
	42.585000	0.146265
	42.590000	0.267948
	42.595000	0.215328
	42.600000	0.090357
	42.605000	0.146265
	42.610000	0.267948
	42.615000	0.215328
	42.620000	0.093645
	42.625000	0.146265
	42.630000	0.267948
	42.635000	0.215328
	42.640000	0.093645
	42.645000	0.152842
	42.650000	0.267948
	42.655000	0.218617
	42.660000	0.093645
	42.665000	0.149554
	42.670000	0.271236
	42.675000	0.215328
	42.680000	0.093645
	42.685000	0.142976
	42.690000	0.267948
	42.695000	0.218617
	42.700000	0.093645
	42.705000	0.146265
	42.710000	0.267948
	42.715000	0.218617
	42.720000	0.090357
	42.725000	0.146265
	42.730000	0.264659
	42.735000	0.212039
	42.740000	0.093645
	42.745000	0.146265
	42.750000	0.271236
	42.755000	0.212039
	42.760000	0.093645
	42.765000	0.142976
	42.770000	0.261370
	42.775000	0.218617
	42.780000	0.090357
	42.785000	0.149554
	42.790000	0.267948
	42.795000	0.218617
	42.800000	0.093645
	42.805000	0.146265
	42.810000	0.271236
	42.815000	0.215328
	42.820000	0.093645
	42.825000	0.149554
	42.830000	0.267948
	42.835000	0.218617
	42.840000	0.093645
	42.845000	0.139687
	42.850000	0.267948
	42.855000	0.215328
	42.860000	0.096934
	42.865000	0.146265
	42.870000	0.271236
	42.875000	0.218617
	42.880000	0.093645
	42.885000	0.146265
	42.890000	0.264659
	42.895000	0.221905
	42.900000	0.093645
	42.905000	0.139687
	42.910000	0.264659
	42.915000	0.221905
	42.920000	0.093645
	42.925000	0.139687
	42.930000	0.264659
	42.935000	0.215328
	42.940000	0.093645
	42.945000	0.142976
	42.950000	0.264659
	42.955000	0.215328
	42.960000	0.090357
	42.965000	0.142976
	42.970000	0.267948
	42.975000	0.218617
	42.980000	0.090357
	42.985000	0.136399
	42.990000	0.264659
	42.995000	0.218617
	43.000000	0.090357
	43.005000	0.142976
	43.010000	0.267948
	43.015000	0.221905
	43.020000	0.096934
	43.025000	0.142976
	43.030000	0.267948
	43.035000	0.218617
	43.040000	0.093645
	43.045000	0.136399
	43.050000	0.264659
	43.055000	0.221905
	43.060000	0.093645
	43.065000	0.142976
	43.070000	0.271236
	43.075000	0.218617
	43.080000	0.093645
	43.085000	0.136399
	43.090000	0.261370
	43.095000	0.218617
	43.100000	0.090357
	43.105000	0.139687
	43.110000	0.264659
	43.115000	0.221905
	43.120000	0.093645
	43.125000	0.139687
	43.130000	0.261370
	43.135000	0.221905
	43.140000	0.093645
	43.145000	0.142976
	43.150000	0.264659
	43.155000	0.225194
	43.160000	0.093645
	43.165000	0.142976
	43.170000	0.261370
	43.175000	0.218617
	43.180000	0.093645
	43.185000	0.142976
	43.190000	0.267948
	43.195000	0.218617
	43.200000	0.093645
	43.205000	0.136399
	43.210000	0.258081
	43.215000	0.218617
	43.220000	0.093645
	43.225000	0.136399
	43.230000	0.267948
	43.235000	0.221905
	43.240000	0.090357
	43.245000	0.136399
	43.250000	0.258081
	43.255000	0.215328
	43.260000	0.090357
	43.265000	0.136399
	43.270000	0.261370
	43.275000	0.218617
	43.280000	0.093645
	43.285000	0.142976
	43.290000	0.264659
	43.295000	0.221905
	43.300000	0.090357
	43.305000	0.136399
	43.310000	0.258081
	43.315000	0.218617
	43.320000	0.093645
	43.325000	0.136399
	43.330000	0.264659
	43.335000	0.218617
	43.340000	0.090357
	43.345000	0.133110
	43.350000	0.261370
	43.355000	0.225194
	43.360000	0.093645
	43.365000	0.136399
	43.370000	0.258081
	43.375000	0.218617
	43.380000	0.096934
	43.385000	0.136399
	43.390000	0.264659
	43.395000	0.225194
	43.400000	0.093645
	43.405000	0.136399
	43.410000	0.258081
	43.415000	0.221905
	43.420000	0.093645
	43.425000	0.136399
	43.430000	0.261370
	43.435000	0.221905
	43.440000	0.093645
	43.445000	0.136399
	43.450000	0.261370
	43.455000	0.221905
	43.460000	0.087068
	43.465000	0.133110
	43.470000	0.258081
	43.475000	0.225194
	43.480000	0.096934
	43.485000	0.133110
	43.490000	0.261370
	43.495000	0.225194
	43.500000	0.093645
	43.505000	0.136399
	43.510000	0.261370
	43.515000	0.221905
	43.520000	0.093645
	43.525000	0.136399
	43.530000	0.258081
	43.535000	0.225194
	43.540000	0.096934
	43.545000	0.136399
	43.550000	0.258081
	43.555000	0.225194
	43.560000	0.090357
	43.565000	0.133110
	43.570000	0.261370
	43.575000	0.225194
	43.580000	0.093645
	43.585000	0.136399
	43.590000	0.261370
	43.595000	0.225194
	43.600000	0.093645
	43.605000	0.133110
	43.610000	0.261370
	43.615000	0.228483
	43.620000	0.096934
	43.625000	0.136399
	43.630000	0.261370
	43.635000	0.221905
	43.640000	0.090357
	43.645000	0.133110
	43.650000	0.258081
	43.655000	0.231772
	43.660000	0.096934
	43.665000	0.133110
	43.670000	0.261370
	43.675000	0.228483
	43.680000	0.093645
	43.685000	0.136399
	43.690000	0.264659
	43.695000	0.225194
	43.700000	0.100223
	43.705000	0.136399
	43.710000	0.258081
	43.715000	0.228483
	43.720000	0.096934
	43.725000	0.133110
	43.730000	0.258081
	43.735000	0.225194
	43.740000	0.096934
	43.745000	0.129821
	43.750000	0.261370
	43.755000	0.228483
	43.760000	0.100223
	43.765000	0.136399
	43.770000	0.258081
	43.775000	0.221905
	43.780000	0.096934
	43.785000	0.133110
	43.790000	0.261370
	43.795000	0.228483
	43.800000	0.096934
	43.805000	0.136399
	43.810000	0.258081
	43.815000	0.228483
	43.820000	0.096934
	43.825000	0.133110
	43.830000	0.258081
	43.835000	0.231772
	43.840000	0.096934
	43.845000	0.136399
	43.850000	0.261370
	43.855000	0.228483
	43.860000	0.100223
	43.865000	0.129821
	43.870000	0.258081
	43.875000	0.228483
	43.880000	0.096934
	43.885000	0.133110
	43.890000	0.258081
	43.895000	0.228483
	43.900000	0.100223
	43.905000	0.133110
	43.910000	0.254793
	43.915000	0.228483
	43.920000	0.100223
	43.925000	0.129821
	43.930000	0.261370
	43.935000	0.228483
	43.940000	0.100223
	43.945000	0.129821
	43.950000	0.258081
	43.955000	0.228483
	43.960000	0.096934
	43.965000	0.126533
	43.970000	0.254793
	43.975000	0.228483
	43.980000	0.096934
	43.985000	0.126533
	43.990000	0.254793
	43.995000	0.228483
	44.000000	0.100223
	44.005000	0.129821
	44.010000	0.254793
	44.015000	0.225194
	44.020000	0.100223
	44.025000	0.126533
	44.030000	0.254793
	44.035000	0.225194
	44.040000	0.093645
	44.045000	0.119955
	44.050000	0.261370
	44.055000	0.228483
	44.060000	0.096934
	44.065000	0.129821
	44.070000	0.254793
	44.075000	0.228483
	44.080000	0.096934
	44.085000	0.123244
	44.090000	0.258081
	44.095000	0.231772
	44.100000	0.096934
	44.105000	0.129821
	44.110000	0.254793
	44.115000	0.231772
	44.120000	0.093645
	44.125000	0.129821
	44.130000	0.258081
	44.135000	0.228483
	44.140000	0.093645
	44.145000	0.126533
	44.150000	0.254793
	44.155000	0.228483
	44.160000	0.096934
	44.165000	0.123244
	44.170000	0.254793
	44.175000	0.228483
	44.180000	0.096934
	44.185000	0.126533
	44.190000	0.251504
	44.195000	0.231772
	44.200000	0.096934
	44.205000	0.126533
	44.210000	0.254793
	44.215000	0.228483
	44.220000	0.100223
	44.225000	0.126533
	44.230000	0.254793
	44.235000	0.228483
	44.240000	0.096934
	44.245000	0.123244
	44.250000	0.251504
	44.255000	0.228483
	44.260000	0.100223
	44.265000	0.126533
	44.270000	0.254793
	44.275000	0.231772
	44.280000	0.100223
	44.285000	0.126533
	44.290000	0.258081
	44.295000	0.231772
	44.300000	0.100223
	44.305000	0.119955
	44.310000	0.251504
	44.315000	0.231772
	44.320000	0.103511
	44.325000	0.129821
	44.330000	0.254793
	44.335000	0.231772
	44.340000	0.093645
	44.345000	0.123244
	44.350000	0.254793
	44.355000	0.228483
	44.360000	0.096934
	44.365000	0.123244
	44.370000	0.251504
	44.375000	0.231772
	44.380000	0.096934
	44.385000	0.123244
	44.390000	0.251504
	44.395000	0.235060
	44.400000	0.100223
	44.405000	0.123244
	44.410000	0.251504
	44.415000	0.231772
	44.420000	0.100223
	44.425000	0.119955
	44.430000	0.251504
	44.435000	0.228483
	44.440000	0.096934
	44.445000	0.123244
	44.450000	0.251504
	44.455000	0.231772
	44.460000	0.096934
	44.465000	0.123244
	44.470000	0.251504
	44.475000	0.231772
	44.480000	0.096934
	44.485000	0.119955
	44.490000	0.251504
	44.495000	0.231772
	44.500000	0.096934
	44.505000	0.123244
	44.510000	0.251504
	44.515000	0.231772
	44.520000	0.100223
	44.525000	0.116666
	44.530000	0.248215
	44.535000	0.231772
	44.540000	0.100223
	44.545000	0.116666
	44.550000	0.254793
	44.555000	0.228483
	44.560000	0.096934
	44.565000	0.123244
	44.570000	0.248215
	44.575000	0.235060
	44.580000	0.100223
	44.585000	0.119955
	44.590000	0.248215
	44.595000	0.231772
	44.600000	0.096934
	44.605000	0.116666
	44.610000	0.254793
	44.615000	0.231772
	44.620000	0.096934
	44.625000	0.116666
	44.630000	0.251504
	44.635000	0.235060
	44.640000	0.093645
	44.645000	0.119955
	44.650000	0.248215
	44.655000	0.231772
	44.660000	0.096934
	44.665000	0.116666
	44.670000	0.251504
	44.675000	0.228483
	44.680000	0.100223
	44.685000	0.116666
	44.690000	0.251504
	44.695000	0.231772
	44.700000	0.093645
	44.705000	0.119955
	44.710000	0.248215
	44.715000	0.231772
	44.720000	0.096934
	44.725000	0.116666
	44.730000	0.254793
	44.735000	0.231772
	44.740000	0.100223
	44.745000	0.119955
	44.750000	0.244927
	44.755000	0.235060
	44.760000	0.096934
	44.765000	0.116666
	44.770000	0.248215
	44.775000	0.235060
	44.780000	0.100223
	44.785000	0.119955
	44.790000	0.251504
	44.795000	0.235060
	44.800000	0.096934
	44.805000	0.116666
	44.810000	0.251504
	44.815000	0.235060
	44.820000	0.100223
	44.825000	0.113378
	44.830000	0.248215
	44.835000	0.228483
	44.840000	0.100223
	44.845000	0.116666
	44.850000	0.244927
	44.855000	0.235060
	44.860000	0.096934
	44.865000	0.116666
	44.870000	0.248215
	44.875000	0.235060
	44.880000	0.100223
	44.885000	0.113378
	44.890000	0.248215
	44.895000	0.238349
	44.900000	0.100223
	44.905000	0.110089
	44.910000	0.248215
	44.915000	0.235060
	44.920000	0.100223
	44.925000	0.113378
	44.930000	0.244927
	44.935000	0.235060
	44.940000	0.096934
	44.945000	0.119955
	44.950000	0.248215
	44.955000	0.228483
	44.960000	0.096934
	44.965000	0.116666
	44.970000	0.248215
	44.975000	0.231772
	44.980000	0.100223
	44.985000	0.113378
	44.990000	0.244927
	44.995000	0.231772
	45.000000	0.100223
	45.005000	0.116666
	45.010000	0.244927
	45.015000	0.231772
	45.020000	0.096934
	45.025000	0.110089
	45.030000	0.248215
	45.035000	0.235060
	45.040000	0.100223
	45.045000	0.110089
	45.050000	0.244927
	45.055000	0.235060
	45.060000	0.096934
	45.065000	0.106800
	45.070000	0.248215
	45.075000	0.235060
	45.080000	0.100223
	45.085000	0.110089
	45.090000	0.248215
	45.095000	0.231772
	45.100000	0.096934
	45.105000	0.110089
	45.110000	0.244927
	45.115000	0.235060
	45.120000	0.093645
	45.125000	0.113378
	45.130000	0.244927
	45.135000	0.231772
	45.140000	0.096934
	45.145000	0.110089
	45.150000	0.244927
	45.155000	0.235060
	45.160000	0.096934
	45.165000	0.103511
	45.170000	0.241638
	45.175000	0.235060
	45.180000	0.096934
	45.185000	0.110089
	45.190000	0.241638
	45.195000	0.231772
	45.200000	0.100223
	45.205000	0.110089
	45.210000	0.241638
	45.215000	0.235060
	45.220000	0.096934
	45.225000	0.106800
	45.230000	0.241638
	45.235000	0.231772
	45.240000	0.100223
	45.245000	0.106800
	45.250000	0.241638
	45.255000	0.238349
	45.260000	0.103511
	45.265000	0.110089
	45.270000	0.241638
	45.275000	0.231772
	45.280000	0.096934
	45.285000	0.106800
	45.290000	0.241638
	45.295000	0.228483
	45.300000	0.096934
	45.305000	0.106800
	45.310000	0.241638
	45.315000	0.231772
	45.320000	0.100223
	45.325000	0.106800
	45.330000	0.238349
	45.335000	0.228483
	45.340000	0.103511
	45.345000	0.106800
	45.350000	0.238349
	45.355000	0.235060
	45.360000	0.100223
	45.365000	0.106800
	45.370000	0.244927
	45.375000	0.238349
	45.380000	0.100223
	45.385000	0.110089
	45.390000	0.248215
	45.395000	0.241638
	45.400000	0.106800
	45.405000	0.113378
	45.410000	0.248215
	45.415000	0.241638
	45.420000	0.110089
	45.425000	0.116666
	45.430000	0.251504
	45.435000	0.244927
	45.440000	0.110089
	45.445000	0.116666
	45.450000	0.248215
	45.455000	0.241638
	45.460000	0.110089
	45.465000	0.113378
	45.470000	0.248215
	45.475000	0.241638
	45.480000	0.106800
	45.485000	0.113378
	45.490000	0.248215
	45.495000	0.241638
	45.500000	0.103511
	45.505000	0.110089
	45.510000	0.241638
	45.515000	0.238349
	45.520000	0.100223
	45.525000	0.106800
	45.530000	0.241638
	45.535000	0.235060
	45.540000	0.096934
	45.545000	0.103511
	45.550000	0.235060
	45.555000	0.231772
	45.560000	0.100223
	45.565000	0.103511
	45.570000	0.238349
	45.575000	0.235060
	45.580000	0.100223
	45.585000	0.103511
	45.590000	0.235060
	45.595000	0.235060
	45.600000	0.100223
	45.605000	0.103511
	45.610000	0.235060
	45.615000	0.238349
	45.620000	0.096934
	45.625000	0.100223
	45.630000	0.238349
	45.635000	0.235060
	45.640000	0.103511
	45.645000	0.103511
	45.650000	0.235060
	45.655000	0.235060
	45.660000	0.096934
	45.665000	0.096934
	45.670000	0.235060
	45.675000	0.235060
	45.680000	0.100223
	45.685000	0.100223
	45.690000	0.231772
	45.695000	0.238349
	45.700000	0.100223
	45.705000	0.103511
	45.710000	0.235060
	45.715000	0.235060
	45.720000	0.103511
	45.725000	0.103511
	45.730000	0.235060
	45.735000	0.235060
	45.740000	0.103511
	45.745000	0.103511
	45.750000	0.231772
	45.755000	0.235060
	45.760000	0.100223
	45.765000	0.100223
	45.770000	0.235060
	45.775000	0.231772
	45.780000	0.100223
	45.785000	0.100223
	45.790000	0.235060
	45.795000	0.235060
	45.800000	0.103511
	45.805000	0.100223
	45.810000	0.235060
	45.815000	0.238349
	45.820000	0.103511
	45.825000	0.100223
	45.830000	0.235060
	45.835000	0.235060
	45.840000	0.103511
	45.845000	0.100223
	45.850000	0.235060
	45.855000	0.235060
	45.860000	0.100223
	45.865000	0.103511
	45.870000	0.235060
	45.875000	0.241638
	45.880000	0.106800
	45.885000	0.110089
	45.890000	0.251504
	45.895000	0.254793
	45.900000	0.123244
	45.905000	0.123244
	45.910000	0.254793
	45.915000	0.264659
	45.920000	0.129821
	45.925000	0.126533
	45.930000	0.267948
	45.935000	0.267948
	45.940000	0.133110
	45.945000	0.133110
	45.950000	0.264659
	45.955000	0.271236
	45.960000	0.136399
	45.965000	0.133110
	45.970000	0.261370
	45.975000	0.274525
	45.980000	0.136399
	45.985000	0.133110
	45.990000	0.267948
	45.995000	0.264659
	46.000000	0.133110
	46.005000	0.129821
	46.010000	0.261370
	46.015000	0.264659
	46.020000	0.129821
	46.025000	0.126533
	46.030000	0.264659
	46.035000	0.264659
	46.040000	0.129821
	46.045000	0.123244
	46.050000	0.254793
	46.055000	0.264659
	46.060000	0.129821
	46.065000	0.123244
	46.070000	0.251504
	46.075000	0.258081
	46.080000	0.123244
	46.085000	0.116666
	46.090000	0.251504
	46.095000	0.258081
	46.100000	0.119955
	46.105000	0.113378
	46.110000	0.248215
	46.115000	0.251504
	46.120000	0.123244
	46.125000	0.113378
	46.130000	0.244927
	46.135000	0.251504
	46.140000	0.113378
	46.145000	0.110089
	46.150000	0.241638
	46.155000	0.251504
	46.160000	0.116666
	46.165000	0.116666
	46.170000	0.244927
	46.175000	0.254793
	46.180000	0.116666
	46.185000	0.106800
	46.190000	0.238349
	46.195000	0.251504
	46.200000	0.116666
	46.205000	0.106800
	46.210000	0.241638
	46.215000	0.248215
	46.220000	0.116666
	46.225000	0.106800
	46.230000	0.238349
	46.235000	0.251504
	46.240000	0.116666
	46.245000	0.103511
	46.250000	0.238349
	46.255000	0.251504
	46.260000	0.113378
	46.265000	0.106800
	46.270000	0.241638
	46.275000	0.244927
	46.280000	0.113378
	46.285000	0.106800
	46.290000	0.241638
	46.295000	0.254793
	46.300000	0.116666
	46.305000	0.106800
	46.310000	0.241638
	46.315000	0.251504
	46.320000	0.116666
	46.325000	0.110089
	46.330000	0.244927
	46.335000	0.251504
	46.340000	0.119955
	46.345000	0.113378
	46.350000	0.241638
	46.355000	0.261370
	46.360000	0.119955
	46.365000	0.110089
	46.370000	0.248215
	46.375000	0.254793
	46.380000	0.126533
	46.385000	0.110089
	46.390000	0.248215
	46.395000	0.258081
	46.400000	0.123244
	46.405000	0.110089
	46.410000	0.241638
	46.415000	0.254793
	46.420000	0.126533
	46.425000	0.113378
	46.430000	0.241638
	46.435000	0.254793
	46.440000	0.116666
	46.445000	0.106800
	46.450000	0.238349
	46.455000	0.251504
	46.460000	0.123244
	46.465000	0.110089
	46.470000	0.238349
	46.475000	0.251504
	46.480000	0.119955
	46.485000	0.106800
	46.490000	0.235060
	46.495000	0.248215
	46.500000	0.116666
	46.505000	0.096934
	46.510000	0.231772
	46.515000	0.241638
	46.520000	0.110089
	46.525000	0.096934
	46.530000	0.228483
	46.535000	0.238349
	46.540000	0.103511
	46.545000	0.087068
	46.550000	0.221905
	46.555000	0.235060
	46.560000	0.100223
	46.565000	0.087068
	46.570000	0.221905
	46.575000	0.235060
	46.580000	0.096934
	46.585000	0.090357
	46.590000	0.221905
	46.595000	0.235060
	46.600000	0.096934
	46.605000	0.087068
	46.610000	0.221905
	46.615000	0.238349
	46.620000	0.096934
	46.625000	0.087068
	46.630000	0.218617
	46.635000	0.235060
	46.640000	0.103511
	46.645000	0.090357
	46.650000	0.225194
	46.655000	0.238349
	46.660000	0.103511
	46.665000	0.087068
	46.670000	0.218617
	46.675000	0.238349
	46.680000	0.106800
	46.685000	0.087068
	46.690000	0.225194
	46.695000	0.238349
	46.700000	0.103511
	46.705000	0.090357
	46.710000	0.225194
	46.715000	0.238349
	46.720000	0.103511
	46.725000	0.087068
	46.730000	0.221905
	46.735000	0.241638
	46.740000	0.106800
	46.745000	0.090357
	46.750000	0.218617
	46.755000	0.241638
	46.760000	0.110089
	46.765000	0.090357
	46.770000	0.225194
	46.775000	0.235060
	46.780000	0.106800
	46.785000	0.090357
	46.790000	0.218617
	46.795000	0.241638
	46.800000	0.106800
	46.805000	0.090357
	46.810000	0.225194
	46.815000	0.244927
	46.820000	0.106800
	46.825000	0.090357
	46.830000	0.221905
	46.835000	0.241638
	46.840000	0.106800
	46.845000	0.090357
	46.850000	0.221905
	46.855000	0.244927
	46.860000	0.110089
	46.865000	0.093645
	46.870000	0.225194
	46.875000	0.244927
	46.880000	0.110089
	46.885000	0.090357
	46.890000	0.221905
	46.895000	0.241638
	46.900000	0.103511
	46.905000	0.090357
	46.910000	0.221905
	46.915000	0.241638
	46.920000	0.106800
	46.925000	0.090357
	46.930000	0.221905
	46.935000	0.241638
	46.940000	0.110089
	46.945000	0.090357
	46.950000	0.225194
	46.955000	0.244927
	46.960000	0.110089
	46.965000	0.090357
	46.970000	0.225194
	46.975000	0.244927
	46.980000	0.113378
	46.985000	0.087068
	46.990000	0.221905
	46.995000	0.244927
	47.000000	0.116666
	47.005000	0.090357
	47.010000	0.218617
	47.015000	0.241638
	47.020000	0.110089
	47.025000	0.087068
	47.030000	0.218617
	47.035000	0.244927
	47.040000	0.110089
	47.045000	0.090357
	47.050000	0.221905
	47.055000	0.248215
	47.060000	0.110089
	47.065000	0.087068
	47.070000	0.218617
	47.075000	0.244927
	47.080000	0.113378
	47.085000	0.090357
	47.090000	0.221905
	47.095000	0.244927
	47.100000	0.106800
	47.105000	0.093645
	47.110000	0.225194
	47.115000	0.244927
	47.120000	0.116666
	47.125000	0.087068
	47.130000	0.225194
	47.135000	0.244927
	47.140000	0.116666
	47.145000	0.090357
	47.150000	0.221905
	47.155000	0.244927
	47.160000	0.116666
	47.165000	0.090357
	47.170000	0.225194
	47.175000	0.244927
	47.180000	0.116666
	47.185000	0.093645
	47.190000	0.218617
	47.195000	0.244927
	47.200000	0.116666
	47.205000	0.090357
	47.210000	0.221905
	47.215000	0.244927
	47.220000	0.116666
	47.225000	0.090357
	47.230000	0.221905
	47.235000	0.244927
	47.240000	0.116666
	47.245000	0.090357
	47.250000	0.225194
	47.255000	0.251504
	47.260000	0.116666
	47.265000	0.093645
	47.270000	0.221905
	47.275000	0.251504
	47.280000	0.116666
	47.285000	0.093645
	47.290000	0.221905
	47.295000	0.248215
	47.300000	0.116666
	47.305000	0.090357
	47.310000	0.221905
	47.315000	0.244927
	47.320000	0.119955
	47.325000	0.093645
	47.330000	0.228483
	47.335000	0.248215
	47.340000	0.123244
	47.345000	0.090357
	47.350000	0.225194
	47.355000	0.251504
	47.360000	0.116666
	47.365000	0.090357
	47.370000	0.225194
	47.375000	0.251504
	47.380000	0.126533
	47.385000	0.090357
	47.390000	0.221905
	47.395000	0.248215
	47.400000	0.126533
	47.405000	0.093645
	47.410000	0.221905
	47.415000	0.254793
	47.420000	0.116666
	47.425000	0.093645
	47.430000	0.225194
	47.435000	0.254793
	47.440000	0.123244
	47.445000	0.093645
	47.450000	0.218617
	47.455000	0.248215
	47.460000	0.116666
	47.465000	0.090357
	47.470000	0.218617
	47.475000	0.251504
	47.480000	0.123244
	47.485000	0.090357
	47.490000	0.221905
	47.495000	0.254793
	47.500000	0.126533
	47.505000	0.090357
	47.510000	0.221905
	47.515000	0.251504
	47.520000	0.119955
	47.525000	0.090357
	47.530000	0.218617
	47.535000	0.251504
	47.540000	0.126533
	47.545000	0.093645
	47.550000	0.221905
	47.555000	0.258081
	47.560000	0.123244
	47.565000	0.093645
	47.570000	0.221905
	47.575000	0.251504
	47.580000	0.123244
	47.585000	0.090357
	47.590000	0.221905
	47.595000	0.254793
	47.600000	0.123244
	47.605000	0.090357
	47.610000	0.218617
	47.615000	0.254793
	47.620000	0.123244
	47.625000	0.090357
	47.630000	0.218617
	47.635000	0.254793
	47.640000	0.126533
	47.645000	0.090357
	47.650000	0.215328
	47.655000	0.251504
	47.660000	0.119955
	47.665000	0.093645
	47.670000	0.221905
	47.675000	0.251504
	47.680000	0.126533
	47.685000	0.087068
	47.690000	0.221905
	47.695000	0.248215
	47.700000	0.119955
	47.705000	0.090357
	47.710000	0.218617
	47.715000	0.254793
	47.720000	0.123244
	47.725000	0.090357
	47.730000	0.221905
	47.735000	0.258081
	47.740000	0.126533
	47.745000	0.087068
	47.750000	0.215328
	47.755000	0.251504
	47.760000	0.123244
	47.765000	0.090357
	47.770000	0.218617
	47.775000	0.251504
	47.780000	0.123244
	47.785000	0.090357
	47.790000	0.218617
	47.795000	0.254793
	47.800000	0.126533
	47.805000	0.090357
	47.810000	0.215328
	47.815000	0.254793
	47.820000	0.126533
	47.825000	0.090357
	47.830000	0.215328
	47.835000	0.251504
	47.840000	0.123244
	47.845000	0.090357
	47.850000	0.212039
	47.855000	0.254793
	47.860000	0.123244
	47.865000	0.090357
	47.870000	0.215328
	47.875000	0.251504
	47.880000	0.123244
	47.885000	0.087068
	47.890000	0.215328
	47.895000	0.251504
	47.900000	0.123244
	47.905000	0.083779
	47.910000	0.215328
	47.915000	0.251504
	47.920000	0.119955
	47.925000	0.090357
	47.930000	0.218617
	47.935000	0.251504
	47.940000	0.126533
	47.945000	0.083779
	47.950000	0.212039
	47.955000	0.254793
	47.960000	0.123244
	47.965000	0.087068
	47.970000	0.208751
	47.975000	0.251504
	47.980000	0.126533
	47.985000	0.083779
	47.990000	0.215328
	47.995000	0.251504
	48.000000	0.126533
	48.005000	0.087068
	48.010000	0.215328
	48.015000	0.248215
	48.020000	0.123244
	48.025000	0.087068
	48.030000	0.212039
	48.035000	0.251504
	48.040000	0.119955
	48.045000	0.083779
	48.050000	0.212039
	48.055000	0.254793
	48.060000	0.126533
	48.065000	0.087068
	48.070000	0.215328
	48.075000	0.251504
	48.080000	0.126533
	48.085000	0.090357
	48.090000	0.212039
	48.095000	0.254793
	48.100000	0.126533
	48.105000	0.087068
	48.110000	0.215328
	48.115000	0.254793
	48.120000	0.129821
	48.125000	0.087068
	48.130000	0.212039
	48.135000	0.258081
	48.140000	0.126533
	48.145000	0.083779
	48.150000	0.208751
	48.155000	0.254793
	48.160000	0.129821
	48.165000	0.087068
	48.170000	0.212039
	48.175000	0.254793
	48.180000	0.126533
	48.185000	0.087068
	48.190000	0.208751
	48.195000	0.251504
	48.200000	0.126533
	48.205000	0.087068
	48.210000	0.208751
	48.215000	0.254793
	48.220000	0.126533
	48.225000	0.087068
	48.230000	0.212039
	48.235000	0.251504
	48.240000	0.126533
	48.245000	0.087068
	48.250000	0.215328
	48.255000	0.251504
	48.260000	0.126533
	48.265000	0.083779
	48.270000	0.208751
	48.275000	0.251504
	48.280000	0.126533
	48.285000	0.083779
	48.290000	0.208751
	48.295000	0.254793
	48.300000	0.129821
	48.305000	0.083779
	48.310000	0.208751
	48.315000	0.251504
	48.320000	0.129821
	48.325000	0.087068
	48.330000	0.208751
	48.335000	0.251504
	48.340000	0.129821
	48.345000	0.083779
	48.350000	0.208751
	48.355000	0.254793
	48.360000	0.129821
	48.365000	0.087068
	48.370000	0.208751
	48.375000	0.254793
	48.380000	0.129821
	48.385000	0.080490
	48.390000	0.205462
	48.395000	0.248215
	48.400000	0.129821
	48.405000	0.083779
	48.410000	0.208751
	48.415000	0.254793
	48.420000	0.129821
	48.425000	0.083779
	48.430000	0.208751
	48.435000	0.254793
	48.440000	0.129821
	48.445000	0.080490
	48.450000	0.208751
	48.455000	0.254793
	48.460000	0.126533
	48.465000	0.087068
	48.470000	0.208751
	48.475000	0.251504
	48.480000	0.133110
	48.485000	0.083779
	48.490000	0.205462
	48.495000	0.254793
	48.500000	0.133110
	48.505000	0.077202
	48.510000	0.205462
	48.515000	0.251504
	48.520000	0.129821
	48.525000	0.083779
	48.530000	0.205462
	48.535000	0.254793
	48.540000	0.129821
	48.545000	0.083779
	48.550000	0.205462
	48.555000	0.254793
	48.560000	0.129821
	48.565000	0.087068
	48.570000	0.205462
	48.575000	0.251504
	48.580000	0.133110
	48.585000	0.080490
	48.590000	0.208751
	48.595000	0.251504
	48.600000	0.133110
	48.605000	0.083779
	48.610000	0.198884
	48.615000	0.254793
	48.620000	0.129821
	48.625000	0.083779
	48.630000	0.205462
	48.635000	0.254793
	48.640000	0.133110
	48.645000	0.077202
	48.650000	0.202173
	48.655000	0.251504
	48.660000	0.129821
	48.665000	0.080490
	48.670000	0.202173
	48.675000	0.254793
	48.680000	0.129821
	48.685000	0.080490
	48.690000	0.205462
	48.695000	0.251504
	48.700000	0.129821
	48.705000	0.080490
	48.710000	0.202173
	48.715000	0.254793
	48.720000	0.126533
	48.725000	0.077202
	48.730000	0.198884
	48.735000	0.254793
	48.740000	0.129821
	48.745000	0.077202
	48.750000	0.205462
	48.755000	0.258081
	48.760000	0.129821
	48.765000	0.080490
	48.770000	0.205462
	48.775000	0.254793
	48.780000	0.129821
	48.785000	0.077202
	48.790000	0.198884
	48.795000	0.258081
	48.800000	0.136399
	48.805000	0.080490
	48.810000	0.198884
	48.815000	0.251504
	48.820000	0.133110
	48.825000	0.080490
	48.830000	0.202173
	48.835000	0.251504
	48.840000	0.133110
	48.845000	0.080490
	48.850000	0.195596
	48.855000	0.251504
	48.860000	0.136399
	48.865000	0.080490
	48.870000	0.202173
	48.875000	0.251504
	48.880000	0.129821
	48.885000	0.077202
	48.890000	0.202173
	48.895000	0.254793
	48.900000	0.133110
	48.905000	0.080490
	48.910000	0.198884
	48.915000	0.254793
	48.920000	0.133110
	48.925000	0.077202
	48.930000	0.195596
	48.935000	0.251504
	48.940000	0.129821
	48.945000	0.080490
	48.950000	0.195596
	48.955000	0.248215
	48.960000	0.133110
	48.965000	0.077202
	48.970000	0.198884
	48.975000	0.251504
	48.980000	0.133110
	48.985000	0.083779
	48.990000	0.198884
	48.995000	0.254793
	49.000000	0.133110
	49.005000	0.080490
	49.010000	0.198884
	49.015000	0.251504
	49.020000	0.133110
	49.025000	0.080490
	49.030000	0.195596
	49.035000	0.251504
	49.040000	0.133110
	49.045000	0.077202
	49.050000	0.195596
	49.055000	0.251504
	49.060000	0.129821
	49.065000	0.080490
	49.070000	0.195596
	49.075000	0.254793
	49.080000	0.133110
	49.085000	0.073913
	49.090000	0.195596
	49.095000	0.248215
	49.100000	0.129821
	49.105000	0.073913
	49.110000	0.195596
	49.115000	0.254793
	49.120000	0.129821
	49.125000	0.070624
	49.130000	0.198884
	49.135000	0.251504
	49.140000	0.129821
	49.145000	0.073913
	49.150000	0.189018
	49.155000	0.254793
	49.160000	0.129821
	49.165000	0.077202
	49.170000	0.195596
	49.175000	0.254793
	49.180000	0.133110
	49.185000	0.077202
	49.190000	0.192307
	49.195000	0.254793
	49.200000	0.129821
	49.205000	0.070624
	49.210000	0.195596
	49.215000	0.251504
	49.220000	0.129821
	49.225000	0.073913
	49.230000	0.195596
	49.235000	0.251504
	49.240000	0.133110
	49.245000	0.070624
	49.250000	0.189018
	49.255000	0.254793
	49.260000	0.133110
	49.265000	0.070624
	49.270000	0.195596
	49.275000	0.251504
	49.280000	0.133110
	49.285000	0.077202
	49.290000	0.189018
	49.295000	0.251504
	49.300000	0.129821
	49.305000	0.070624
	49.310000	0.192307
	49.315000	0.251504
	49.320000	0.129821
	49.325000	0.070624
	49.330000	0.195596
	49.335000	0.251504
	49.340000	0.133110
	49.345000	0.070624
	49.350000	0.185730
	49.355000	0.254793
	49.360000	0.133110
	49.365000	0.067335
	49.370000	0.192307
	49.375000	0.251504
	49.380000	0.133110
	49.385000	0.067335
	49.390000	0.189018
	49.395000	0.251504
	49.400000	0.133110
	49.405000	0.067335
	49.410000	0.185730
	49.415000	0.251504
	49.420000	0.136399
	49.425000	0.070624
	49.430000	0.185730
	49.435000	0.254793
	49.440000	0.136399
	49.445000	0.067335
	49.450000	0.192307
	49.455000	0.251504
	49.460000	0.129821
	49.465000	0.067335
	49.470000	0.189018
	49.475000	0.251504
	49.480000	0.133110
	49.485000	0.070624
	49.490000	0.185730
	49.495000	0.251504
	49.500000	0.129821
	49.505000	0.070624
	49.510000	0.189018
	49.515000	0.248215
	49.520000	0.126533
	49.525000	0.070624
	49.530000	0.185730
	49.535000	0.251504
	49.540000	0.133110
	49.545000	0.067335
	49.550000	0.185730
	49.555000	0.254793
	49.560000	0.133110
	49.565000	0.067335
	49.570000	0.185730
	49.575000	0.254793
	49.580000	0.129821
	49.585000	0.070624
	49.590000	0.189018
	49.595000	0.251504
	49.600000	0.133110
	49.605000	0.067335
	49.610000	0.185730
	49.615000	0.248215
	49.620000	0.129821
	49.625000	0.064047
	49.630000	0.185730
	49.635000	0.254793
	49.640000	0.133110
	49.645000	0.064047
	49.650000	0.185730
	49.655000	0.248215
	49.660000	0.129821
	49.665000	0.064047
	49.670000	0.185730
	49.675000	0.244927
	49.680000	0.133110
	49.685000	0.064047
	49.690000	0.182441
	49.695000	0.248215
	49.700000	0.133110
	49.705000	0.060758
	49.710000	0.182441
	49.715000	0.251504
	49.720000	0.133110
	49.725000	0.064047
	49.730000	0.182441
	49.735000	0.248215
	49.740000	0.129821
	49.745000	0.064047
	49.750000	0.182441
	49.755000	0.251504
	49.760000	0.129821
	49.765000	0.067335
	49.770000	0.179152
	49.775000	0.248215
	49.780000	0.129821
	49.785000	0.064047
	49.790000	0.179152
	49.795000	0.244927
	49.800000	0.129821
	49.805000	0.067335
	49.810000	0.179152
	49.815000	0.248215
	49.820000	0.129821
	49.825000	0.064047
	49.830000	0.179152
	49.835000	0.251504
	49.840000	0.126533
	49.845000	0.060758
	49.850000	0.182441
	49.855000	0.244927
	49.860000	0.129821
	49.865000	0.057469
	49.870000	0.175863
	49.875000	0.244927
	49.880000	0.129821
	49.885000	0.060758
	49.890000	0.172575
	49.895000	0.248215
	49.900000	0.133110
	49.905000	0.060758
	49.910000	0.175863
	49.915000	0.244927
	49.920000	0.133110
	49.925000	0.060758
	49.930000	0.175863
	49.935000	0.244927
	49.940000	0.129821
	49.945000	0.067335
	49.950000	0.172575
	49.955000	0.244927
	49.960000	0.129821
	49.965000	0.060758
	49.970000	0.172575
	49.975000	0.248215
	49.980000	0.129821
	49.985000	0.060758
	49.990000	0.175863
	49.995000	0.244927
	50.000000	0.133110
	50.005000	0.057469
	50.010000	0.172575
	50.015000	0.248215
	50.020000	0.129821
	50.025000	0.057469
	50.030000	0.175863
	50.035000	0.248215
	50.040000	0.129821
	50.045000	0.060758
	50.050000	0.175863
	50.055000	0.244927
	50.060000	0.129821
	50.065000	0.060758
	50.070000	0.172575
	50.075000	0.244927
	50.080000	0.129821
	50.085000	0.060758
	50.090000	0.175863
	50.095000	0.241638
	50.100000	0.133110
	50.105000	0.060758
	50.110000	0.175863
	50.115000	0.244927
	50.120000	0.129821
	50.125000	0.057469
	50.130000	0.172575
	50.135000	0.248215
	50.140000	0.129821
	50.145000	0.054181
	50.150000	0.172575
	50.155000	0.244927
	50.160000	0.129821
	50.165000	0.060758
	50.170000	0.172575
	50.175000	0.251504
	50.180000	0.136399
	50.185000	0.060758
	50.190000	0.172575
	50.195000	0.248215
	50.200000	0.136399
	50.205000	0.057469
	50.210000	0.175863
	50.215000	0.248215
	50.220000	0.133110
	50.225000	0.064047
	50.230000	0.175863
	50.235000	0.248215
	50.240000	0.136399
	50.245000	0.057469
	50.250000	0.175863
	50.255000	0.248215
	50.260000	0.129821
	50.265000	0.057469
	50.270000	0.179152
	50.275000	0.248215
	50.280000	0.136399
	50.285000	0.057469
