2024/7/21 	 9:35:04 
 This file comes from Vt only measurement 	 1.000000E-1 
 Voltage Sensitivity 	 0.000000E+0 
 Sampling rate 	 200 
 Number of samples per channel 	 -1 
 No filter from Labview 	 	 	 
 	 
 ***End_of_Header*** 
 	 Time 	  Voltage 	 Filtered Voltage 	 
	0.000000	0.494869
	0.005000	0.409363
	0.010000	0.442250
	0.015000	0.527757
	0.020000	0.494869
	0.025000	0.412651
	0.030000	0.445539
	0.035000	0.531045
	0.040000	0.491581
	0.045000	0.412651
	0.050000	0.445539
	0.055000	0.531045
	0.060000	0.488292
	0.065000	0.406074
	0.070000	0.445539
	0.075000	0.527757
	0.080000	0.488292
	0.085000	0.406074
	0.090000	0.448827
	0.095000	0.531045
	0.100000	0.491581
	0.105000	0.412651
	0.110000	0.452116
	0.115000	0.531045
	0.120000	0.491581
	0.125000	0.412651
	0.130000	0.452116
	0.135000	0.531045
	0.140000	0.491581
	0.145000	0.412651
	0.150000	0.448827
	0.155000	0.534334
	0.160000	0.488292
	0.165000	0.409363
	0.170000	0.452116
	0.175000	0.527757
	0.180000	0.491581
	0.185000	0.409363
	0.190000	0.458694
	0.195000	0.531045
	0.200000	0.494869
	0.205000	0.409363
	0.210000	0.455405
	0.215000	0.534334
	0.220000	0.494869
	0.225000	0.409363
	0.230000	0.458694
	0.235000	0.534334
	0.240000	0.491581
	0.245000	0.412651
	0.250000	0.452116
	0.255000	0.537623
	0.260000	0.498158
	0.265000	0.412651
	0.270000	0.452116
	0.275000	0.534334
	0.280000	0.491581
	0.285000	0.409363
	0.290000	0.455405
	0.295000	0.531045
	0.300000	0.498158
	0.305000	0.415940
	0.310000	0.458694
	0.315000	0.534334
	0.320000	0.494869
	0.325000	0.419229
	0.330000	0.461982
	0.335000	0.534334
	0.340000	0.498158
	0.345000	0.419229
	0.350000	0.461982
	0.355000	0.537623
	0.360000	0.501447
	0.365000	0.412651
	0.370000	0.465271
	0.375000	0.540912
	0.380000	0.498158
	0.385000	0.419229
	0.390000	0.461982
	0.395000	0.537623
	0.400000	0.501447
	0.405000	0.419229
	0.410000	0.465271
	0.415000	0.537623
	0.420000	0.494869
	0.425000	0.419229
	0.430000	0.465271
	0.435000	0.540912
	0.440000	0.501447
	0.445000	0.419229
	0.450000	0.465271
	0.455000	0.537623
	0.460000	0.494869
	0.465000	0.419229
	0.470000	0.471848
	0.475000	0.537623
	0.480000	0.501447
	0.485000	0.415940
	0.490000	0.465271
	0.495000	0.544200
	0.500000	0.498158
	0.505000	0.422518
	0.510000	0.468560
	0.515000	0.537623
	0.520000	0.501447
	0.525000	0.425806
	0.530000	0.471848
	0.535000	0.544200
	0.540000	0.501447
	0.545000	0.425806
	0.550000	0.475137
	0.555000	0.550778
	0.560000	0.501447
	0.565000	0.432384
	0.570000	0.475137
	0.575000	0.550778
	0.580000	0.504736
	0.585000	0.425806
	0.590000	0.475137
	0.595000	0.550778
	0.600000	0.508024
	0.605000	0.432384
	0.610000	0.478426
	0.615000	0.550778
	0.620000	0.504736
	0.625000	0.432384
	0.630000	0.475137
	0.635000	0.550778
	0.640000	0.501447
	0.645000	0.425806
	0.650000	0.475137
	0.655000	0.544200
	0.660000	0.494869
	0.665000	0.419229
	0.670000	0.465271
	0.675000	0.531045
	0.680000	0.491581
	0.685000	0.412651
	0.690000	0.461982
	0.695000	0.537623
	0.700000	0.485003
	0.705000	0.406074
	0.710000	0.461982
	0.715000	0.531045
	0.720000	0.488292
	0.725000	0.409363
	0.730000	0.461982
	0.735000	0.527757
	0.740000	0.488292
	0.745000	0.406074
	0.750000	0.461982
	0.755000	0.534334
	0.760000	0.491581
	0.765000	0.412651
	0.770000	0.461982
	0.775000	0.527757
	0.780000	0.478426
	0.785000	0.409363
	0.790000	0.455405
	0.795000	0.521179
	0.800000	0.471848
	0.805000	0.396208
	0.810000	0.452116
	0.815000	0.524468
	0.820000	0.471848
	0.825000	0.396208
	0.830000	0.452116
	0.835000	0.527757
	0.840000	0.471848
	0.845000	0.389630
	0.850000	0.438961
	0.855000	0.521179
	0.860000	0.471848
	0.865000	0.386342
	0.870000	0.442250
	0.875000	0.521179
	0.880000	0.475137
	0.885000	0.389630
	0.890000	0.435672
	0.895000	0.521179
	0.900000	0.471848
	0.905000	0.389630
	0.910000	0.445539
	0.915000	0.521179
	0.920000	0.475137
	0.925000	0.396208
	0.930000	0.445539
	0.935000	0.524468
	0.940000	0.478426
	0.945000	0.396208
	0.950000	0.448827
	0.955000	0.527757
	0.960000	0.475137
	0.965000	0.396208
	0.970000	0.455405
	0.975000	0.527757
	0.980000	0.478426
	0.985000	0.399496
	0.990000	0.455405
	0.995000	0.527757
	1.000000	0.485003
	1.005000	0.402785
	1.010000	0.458694
	1.015000	0.527757
	1.020000	0.478426
	1.025000	0.402785
	1.030000	0.458694
	1.035000	0.531045
	1.040000	0.478426
	1.045000	0.399496
	1.050000	0.452116
	1.055000	0.524468
	1.060000	0.475137
	1.065000	0.402785
	1.070000	0.458694
	1.075000	0.531045
	1.080000	0.481715
	1.085000	0.409363
	1.090000	0.465271
	1.095000	0.540912
	1.100000	0.485003
	1.105000	0.415940
	1.110000	0.471848
	1.115000	0.547489
	1.120000	0.498158
	1.125000	0.422518
	1.130000	0.481715
	1.135000	0.554066
	1.140000	0.498158
	1.145000	0.429095
	1.150000	0.485003
	1.155000	0.554066
	1.160000	0.501447
	1.165000	0.425806
	1.170000	0.485003
	1.175000	0.550778
	1.180000	0.494869
	1.185000	0.419229
	1.190000	0.475137
	1.195000	0.544200
	1.200000	0.488292
	1.205000	0.412651
	1.210000	0.471848
	1.215000	0.544200
	1.220000	0.491581
	1.225000	0.409363
	1.230000	0.468560
	1.235000	0.537623
	1.240000	0.485003
	1.245000	0.409363
	1.250000	0.465271
	1.255000	0.537623
	1.260000	0.481715
	1.265000	0.409363
	1.270000	0.468560
	1.275000	0.537623
	1.280000	0.478426
	1.285000	0.406074
	1.290000	0.468560
	1.295000	0.534334
	1.300000	0.475137
	1.305000	0.396208
	1.310000	0.458694
	1.315000	0.534334
	1.320000	0.465271
	1.325000	0.386342
	1.330000	0.448827
	1.335000	0.524468
	1.340000	0.458694
	1.345000	0.386342
	1.350000	0.445539
	1.355000	0.521179
	1.360000	0.461982
	1.365000	0.386342
	1.370000	0.445539
	1.375000	0.524468
	1.380000	0.461982
	1.385000	0.386342
	1.390000	0.452116
	1.395000	0.527757
	1.400000	0.465271
	1.405000	0.386342
	1.410000	0.448827
	1.415000	0.524468
	1.420000	0.465271
	1.425000	0.386342
	1.430000	0.452116
	1.435000	0.527757
	1.440000	0.461982
	1.445000	0.389630
	1.450000	0.452116
	1.455000	0.527757
	1.460000	0.468560
	1.465000	0.386342
	1.470000	0.452116
	1.475000	0.524468
	1.480000	0.465271
	1.485000	0.392919
	1.490000	0.455405
	1.495000	0.524468
	1.500000	0.461982
	1.505000	0.383053
	1.510000	0.445539
	1.515000	0.527757
	1.520000	0.465271
	1.525000	0.386342
	1.530000	0.452116
	1.535000	0.527757
	1.540000	0.461982
	1.545000	0.386342
	1.550000	0.452116
	1.555000	0.524468
	1.560000	0.461982
	1.565000	0.386342
	1.570000	0.452116
	1.575000	0.524468
	1.580000	0.461982
	1.585000	0.389630
	1.590000	0.455405
	1.595000	0.524468
	1.600000	0.461982
	1.605000	0.386342
	1.610000	0.458694
	1.615000	0.524468
	1.620000	0.465271
	1.625000	0.386342
	1.630000	0.455405
	1.635000	0.527757
	1.640000	0.465271
	1.645000	0.392919
	1.650000	0.458694
	1.655000	0.527757
	1.660000	0.461982
	1.665000	0.389630
	1.670000	0.455405
	1.675000	0.534334
	1.680000	0.471848
	1.685000	0.396208
	1.690000	0.461982
	1.695000	0.537623
	1.700000	0.475137
	1.705000	0.396208
	1.710000	0.468560
	1.715000	0.534334
	1.720000	0.468560
	1.725000	0.392919
	1.730000	0.465271
	1.735000	0.537623
	1.740000	0.471848
	1.745000	0.399496
	1.750000	0.468560
	1.755000	0.537623
	1.760000	0.468560
	1.765000	0.402785
	1.770000	0.465271
	1.775000	0.534334
	1.780000	0.471848
	1.785000	0.399496
	1.790000	0.468560
	1.795000	0.540912
	1.800000	0.471848
	1.805000	0.389630
	1.810000	0.465271
	1.815000	0.534334
	1.820000	0.465271
	1.825000	0.396208
	1.830000	0.468560
	1.835000	0.531045
	1.840000	0.461982
	1.845000	0.389630
	1.850000	0.465271
	1.855000	0.534334
	1.860000	0.465271
	1.865000	0.386342
	1.870000	0.465271
	1.875000	0.534334
	1.880000	0.465271
	1.885000	0.389630
	1.890000	0.461982
	1.895000	0.531045
	1.900000	0.465271
	1.905000	0.389630
	1.910000	0.461982
	1.915000	0.537623
	1.920000	0.461982
	1.925000	0.389630
	1.930000	0.465271
	1.935000	0.537623
	1.940000	0.468560
	1.945000	0.396208
	1.950000	0.468560
	1.955000	0.537623
	1.960000	0.461982
	1.965000	0.386342
	1.970000	0.461982
	1.975000	0.531045
	1.980000	0.465271
	1.985000	0.389630
	1.990000	0.465271
	1.995000	0.534334
	2.000000	0.465271
	2.005000	0.389630
	2.010000	0.461982
	2.015000	0.537623
	2.020000	0.465271
	2.025000	0.392919
	2.030000	0.468560
	2.035000	0.540912
	2.040000	0.465271
	2.045000	0.392919
	2.050000	0.468560
	2.055000	0.540912
	2.060000	0.471848
	2.065000	0.399496
	2.070000	0.475137
	2.075000	0.547489
	2.080000	0.475137
	2.085000	0.402785
	2.090000	0.475137
	2.095000	0.550778
	2.100000	0.478426
	2.105000	0.406074
	2.110000	0.478426
	2.115000	0.550778
	2.120000	0.475137
	2.125000	0.402785
	2.130000	0.478426
	2.135000	0.554066
	2.140000	0.478426
	2.145000	0.396208
	2.150000	0.475137
	2.155000	0.550778
	2.160000	0.475137
	2.165000	0.396208
	2.170000	0.471848
	2.175000	0.554066
	2.180000	0.478426
	2.185000	0.399496
	2.190000	0.478426
	2.195000	0.557355
	2.200000	0.481715
	2.205000	0.396208
	2.210000	0.485003
	2.215000	0.560644
	2.220000	0.481715
	2.225000	0.406074
	2.230000	0.485003
	2.235000	0.560644
	2.240000	0.488292
	2.245000	0.406074
	2.250000	0.488292
	2.255000	0.567221
	2.260000	0.491581
	2.265000	0.409363
	2.270000	0.491581
	2.275000	0.573799
	2.280000	0.494869
	2.285000	0.415940
	2.290000	0.494869
	2.295000	0.573799
	2.300000	0.494869
	2.305000	0.419229
	2.310000	0.498158
	2.315000	0.577088
	2.320000	0.501447
	2.325000	0.422518
	2.330000	0.504736
	2.335000	0.583665
	2.340000	0.504736
	2.345000	0.432384
	2.350000	0.504736
	2.355000	0.580376
	2.360000	0.504736
	2.365000	0.422518
	2.370000	0.511313
	2.375000	0.577088
	2.380000	0.498158
	2.385000	0.422518
	2.390000	0.504736
	2.395000	0.577088
	2.400000	0.498158
	2.405000	0.419229
	2.410000	0.498158
	2.415000	0.573799
	2.420000	0.491581
	2.425000	0.412651
	2.430000	0.498158
	2.435000	0.577088
	2.440000	0.491581
	2.445000	0.415940
	2.450000	0.498158
	2.455000	0.573799
	2.460000	0.488292
	2.465000	0.412651
	2.470000	0.498158
	2.475000	0.573799
	2.480000	0.488292
	2.485000	0.419229
	2.490000	0.498158
	2.495000	0.573799
	2.500000	0.488292
	2.505000	0.415940
	2.510000	0.501447
	2.515000	0.573799
	2.520000	0.494869
	2.525000	0.412651
	2.530000	0.498158
	2.535000	0.573799
	2.540000	0.491581
	2.545000	0.412651
	2.550000	0.498158
	2.555000	0.570510
	2.560000	0.485003
	2.565000	0.415940
	2.570000	0.498158
	2.575000	0.573799
	2.580000	0.488292
	2.585000	0.415940
	2.590000	0.501447
	2.595000	0.570510
	2.600000	0.488292
	2.605000	0.412651
	2.610000	0.501447
	2.615000	0.573799
	2.620000	0.488292
	2.625000	0.415940
	2.630000	0.504736
	2.635000	0.573799
	2.640000	0.488292
	2.645000	0.412651
	2.650000	0.498158
	2.655000	0.573799
	2.660000	0.488292
	2.665000	0.415940
	2.670000	0.501447
	2.675000	0.577088
	2.680000	0.491581
	2.685000	0.422518
	2.690000	0.508024
	2.695000	0.580376
	2.700000	0.491581
	2.705000	0.415940
	2.710000	0.504736
	2.715000	0.580376
	2.720000	0.494869
	2.725000	0.422518
	2.730000	0.508024
	2.735000	0.580376
	2.740000	0.491581
	2.745000	0.422518
	2.750000	0.511313
	2.755000	0.586954
	2.760000	0.494869
	2.765000	0.419229
	2.770000	0.511313
	2.775000	0.583665
	2.780000	0.498158
	2.785000	0.425806
	2.790000	0.514602
	2.795000	0.583665
	2.800000	0.494869
	2.805000	0.422518
	2.810000	0.511313
	2.815000	0.586954
	2.820000	0.494869
	2.825000	0.425806
	2.830000	0.514602
	2.835000	0.586954
	2.840000	0.498158
	2.845000	0.425806
	2.850000	0.517891
	2.855000	0.586954
	2.860000	0.498158
	2.865000	0.425806
	2.870000	0.517891
	2.875000	0.590242
	2.880000	0.498158
	2.885000	0.425806
	2.890000	0.521179
	2.895000	0.586954
	2.900000	0.494869
	2.905000	0.432384
	2.910000	0.514602
	2.915000	0.590242
	2.920000	0.498158
	2.925000	0.425806
	2.930000	0.517891
	2.935000	0.590242
	2.940000	0.501447
	2.945000	0.429095
	2.950000	0.521179
	2.955000	0.586954
	2.960000	0.498158
	2.965000	0.432384
	2.970000	0.521179
	2.975000	0.590242
	2.980000	0.498158
	2.985000	0.429095
	2.990000	0.524468
	2.995000	0.590242
	3.000000	0.498158
	3.005000	0.432384
	3.010000	0.524468
	3.015000	0.586954
	3.020000	0.494869
	3.025000	0.432384
	3.030000	0.524468
	3.035000	0.596820
	3.040000	0.498158
	3.045000	0.435672
	3.050000	0.524468
	3.055000	0.586954
	3.060000	0.501447
	3.065000	0.432384
	3.070000	0.527757
	3.075000	0.593531
	3.080000	0.498158
	3.085000	0.432384
	3.090000	0.527757
	3.095000	0.596820
	3.100000	0.501447
	3.105000	0.432384
	3.110000	0.527757
	3.115000	0.596820
	3.120000	0.498158
	3.125000	0.435672
	3.130000	0.531045
	3.135000	0.596820
	3.140000	0.498158
	3.145000	0.435672
	3.150000	0.531045
	3.155000	0.596820
	3.160000	0.504736
	3.165000	0.442250
	3.170000	0.534334
	3.175000	0.600109
	3.180000	0.504736
	3.185000	0.438961
	3.190000	0.537623
	3.195000	0.593531
	3.200000	0.508024
	3.205000	0.442250
	3.210000	0.534334
	3.215000	0.596820
	3.220000	0.501447
	3.225000	0.442250
	3.230000	0.537623
	3.235000	0.596820
	3.240000	0.501447
	3.245000	0.438961
	3.250000	0.534334
	3.255000	0.603397
	3.260000	0.511313
	3.265000	0.445539
	3.270000	0.537623
	3.275000	0.603397
	3.280000	0.504736
	3.285000	0.438961
	3.290000	0.537623
	3.295000	0.600109
	3.300000	0.504736
	3.305000	0.442250
	3.310000	0.540912
	3.315000	0.600109
	3.320000	0.508024
	3.325000	0.442250
	3.330000	0.540912
	3.335000	0.600109
	3.340000	0.504736
	3.345000	0.445539
	3.350000	0.540912
	3.355000	0.600109
	3.360000	0.504736
	3.365000	0.438961
	3.370000	0.540912
	3.375000	0.603397
	3.380000	0.504736
	3.385000	0.445539
	3.390000	0.540912
	3.395000	0.600109
	3.400000	0.511313
	3.405000	0.445539
	3.410000	0.540912
	3.415000	0.603397
	3.420000	0.504736
	3.425000	0.452116
	3.430000	0.544200
	3.435000	0.603397
	3.440000	0.511313
	3.445000	0.452116
	3.450000	0.547489
	3.455000	0.609975
	3.460000	0.508024
	3.465000	0.452116
	3.470000	0.550778
	3.475000	0.603397
	3.480000	0.508024
	3.485000	0.455405
	3.490000	0.550778
	3.495000	0.606686
	3.500000	0.517891
	3.505000	0.461982
	3.510000	0.554066
	3.515000	0.609975
	3.520000	0.514602
	3.525000	0.455405
	3.530000	0.550778
	3.535000	0.609975
	3.540000	0.514602
	3.545000	0.458694
	3.550000	0.557355
	3.555000	0.613263
	3.560000	0.514602
	3.565000	0.458694
	3.570000	0.560644
	3.575000	0.616552
	3.580000	0.521179
	3.585000	0.471848
	3.590000	0.567221
	3.595000	0.619841
	3.600000	0.531045
	3.605000	0.475137
	3.610000	0.570510
	3.615000	0.623130
	3.620000	0.531045
	3.625000	0.471848
	3.630000	0.570510
	3.635000	0.623130
	3.640000	0.521179
	3.645000	0.468560
	3.650000	0.563933
	3.655000	0.619841
	3.660000	0.521179
	3.665000	0.468560
	3.670000	0.563933
	3.675000	0.616552
	3.680000	0.514602
	3.685000	0.465271
	3.690000	0.557355
	3.695000	0.606686
	3.700000	0.514602
	3.705000	0.461982
	3.710000	0.557355
	3.715000	0.609975
	3.720000	0.511313
	3.725000	0.461982
	3.730000	0.557355
	3.735000	0.609975
	3.740000	0.508024
	3.745000	0.455405
	3.750000	0.560644
	3.755000	0.606686
	3.760000	0.511313
	3.765000	0.458694
	3.770000	0.557355
	3.775000	0.609975
	3.780000	0.508024
	3.785000	0.458694
	3.790000	0.557355
	3.795000	0.609975
	3.800000	0.508024
	3.805000	0.458694
	3.810000	0.557355
	3.815000	0.613263
	3.820000	0.511313
	3.825000	0.455405
	3.830000	0.560644
	3.835000	0.613263
	3.840000	0.504736
	3.845000	0.461982
	3.850000	0.560644
	3.855000	0.606686
	3.860000	0.508024
	3.865000	0.455405
	3.870000	0.560644
	3.875000	0.606686
	3.880000	0.504736
	3.885000	0.458694
	3.890000	0.557355
	3.895000	0.609975
	3.900000	0.508024
	3.905000	0.461982
	3.910000	0.560644
	3.915000	0.609975
	3.920000	0.511313
	3.925000	0.461982
	3.930000	0.563933
	3.935000	0.613263
	3.940000	0.508024
	3.945000	0.458694
	3.950000	0.560644
	3.955000	0.609975
	3.960000	0.508024
	3.965000	0.458694
	3.970000	0.563933
	3.975000	0.609975
	3.980000	0.504736
	3.985000	0.458694
	3.990000	0.563933
	3.995000	0.609975
	4.000000	0.504736
	4.005000	0.461982
	4.010000	0.557355
	4.015000	0.609975
	4.020000	0.504736
	4.025000	0.458694
	4.030000	0.560644
	4.035000	0.609975
	4.040000	0.508024
	4.045000	0.461982
	4.050000	0.563933
	4.055000	0.609975
	4.060000	0.504736
	4.065000	0.455405
	4.070000	0.563933
	4.075000	0.616552
	4.080000	0.508024
	4.085000	0.461982
	4.090000	0.570510
	4.095000	0.609975
	4.100000	0.511313
	4.105000	0.461982
	4.110000	0.567221
	4.115000	0.613263
	4.120000	0.504736
	4.125000	0.458694
	4.130000	0.567221
	4.135000	0.613263
	4.140000	0.511313
	4.145000	0.461982
	4.150000	0.567221
	4.155000	0.616552
	4.160000	0.508024
	4.165000	0.461982
	4.170000	0.573799
	4.175000	0.613263
	4.180000	0.508024
	4.185000	0.465271
	4.190000	0.570510
	4.195000	0.619841
	4.200000	0.508024
	4.205000	0.465271
	4.210000	0.570510
	4.215000	0.613263
	4.220000	0.511313
	4.225000	0.468560
	4.230000	0.573799
	4.235000	0.616552
	4.240000	0.508024
	4.245000	0.468560
	4.250000	0.570510
	4.255000	0.613263
	4.260000	0.508024
	4.265000	0.465271
	4.270000	0.573799
	4.275000	0.616552
	4.280000	0.508024
	4.285000	0.465271
	4.290000	0.570510
	4.295000	0.609975
	4.300000	0.508024
	4.305000	0.465271
	4.310000	0.573799
	4.315000	0.613263
	4.320000	0.508024
	4.325000	0.468560
	4.330000	0.573799
	4.335000	0.619841
	4.340000	0.504736
	4.345000	0.468560
	4.350000	0.577088
	4.355000	0.616552
	4.360000	0.504736
	4.365000	0.471848
	4.370000	0.577088
	4.375000	0.616552
	4.380000	0.511313
	4.385000	0.471848
	4.390000	0.577088
	4.395000	0.616552
	4.400000	0.511313
	4.405000	0.471848
	4.410000	0.577088
	4.415000	0.619841
	4.420000	0.511313
	4.425000	0.471848
	4.430000	0.580376
	4.435000	0.616552
	4.440000	0.508024
	4.445000	0.475137
	4.450000	0.577088
	4.455000	0.616552
	4.460000	0.511313
	4.465000	0.471848
	4.470000	0.580376
	4.475000	0.619841
	4.480000	0.514602
	4.485000	0.471848
	4.490000	0.580376
	4.495000	0.626418
	4.500000	0.508024
	4.505000	0.475137
	4.510000	0.583665
	4.515000	0.619841
	4.520000	0.511313
	4.525000	0.475137
	4.530000	0.586954
	4.535000	0.619841
	4.540000	0.514602
	4.545000	0.478426
	4.550000	0.583665
	4.555000	0.623130
	4.560000	0.514602
	4.565000	0.478426
	4.570000	0.590242
	4.575000	0.619841
	4.580000	0.511313
	4.585000	0.475137
	4.590000	0.586954
	4.595000	0.619841
	4.600000	0.511313
	4.605000	0.478426
	4.610000	0.590242
	4.615000	0.619841
	4.620000	0.514602
	4.625000	0.478426
	4.630000	0.586954
	4.635000	0.623130
	4.640000	0.514602
	4.645000	0.478426
	4.650000	0.586954
	4.655000	0.623130
	4.660000	0.508024
	4.665000	0.478426
	4.670000	0.593531
	4.675000	0.626418
	4.680000	0.514602
	4.685000	0.481715
	4.690000	0.586954
	4.695000	0.619841
	4.700000	0.511313
	4.705000	0.481715
	4.710000	0.593531
	4.715000	0.623130
	4.720000	0.511313
	4.725000	0.485003
	4.730000	0.596820
	4.735000	0.623130
	4.740000	0.514602
	4.745000	0.481715
	4.750000	0.590242
	4.755000	0.626418
	4.760000	0.514602
	4.765000	0.481715
	4.770000	0.593531
	4.775000	0.629707
	4.780000	0.517891
	4.785000	0.488292
	4.790000	0.593531
	4.795000	0.629707
	4.800000	0.517891
	4.805000	0.488292
	4.810000	0.596820
	4.815000	0.626418
	4.820000	0.521179
	4.825000	0.488292
	4.830000	0.600109
	4.835000	0.629707
	4.840000	0.521179
	4.845000	0.491581
	4.850000	0.596820
	4.855000	0.629707
	4.860000	0.521179
	4.865000	0.494869
	4.870000	0.600109
	4.875000	0.632996
	4.880000	0.521179
	4.885000	0.498158
	4.890000	0.603397
	4.895000	0.632996
	4.900000	0.521179
	4.905000	0.494869
	4.910000	0.606686
	4.915000	0.629707
	4.920000	0.524468
	4.925000	0.498158
	4.930000	0.606686
	4.935000	0.632996
	4.940000	0.527757
	4.945000	0.501447
	4.950000	0.606686
	4.955000	0.629707
	4.960000	0.524468
	4.965000	0.501447
	4.970000	0.606686
	4.975000	0.632996
	4.980000	0.517891
	4.985000	0.498158
	4.990000	0.606686
	4.995000	0.632996
	5.000000	0.521179
	5.005000	0.498158
	5.010000	0.606686
	5.015000	0.636285
	5.020000	0.527757
	5.025000	0.504736
	5.030000	0.616552
	5.035000	0.639573
	5.040000	0.534334
	5.045000	0.511313
	5.050000	0.619841
	5.055000	0.642862
	5.060000	0.534334
	5.065000	0.517891
	5.070000	0.619841
	5.075000	0.639573
	5.080000	0.527757
	5.085000	0.511313
	5.090000	0.616552
	5.095000	0.636285
	5.100000	0.527757
	5.105000	0.501447
	5.110000	0.609975
	5.115000	0.636285
	5.120000	0.524468
	5.125000	0.501447
	5.130000	0.609975
	5.135000	0.632996
	5.140000	0.514602
	5.145000	0.494869
	5.150000	0.603397
	5.155000	0.626418
	5.160000	0.514602
	5.165000	0.491581
	5.170000	0.600109
	5.175000	0.616552
	5.180000	0.511313
	5.185000	0.485003
	5.190000	0.603397
	5.195000	0.623130
	5.200000	0.504736
	5.205000	0.488292
	5.210000	0.600109
	5.215000	0.619841
	5.220000	0.504736
	5.225000	0.485003
	5.230000	0.600109
	5.235000	0.623130
	5.240000	0.511313
	5.245000	0.488292
	5.250000	0.596820
	5.255000	0.619841
	5.260000	0.504736
	5.265000	0.491581
	5.270000	0.600109
	5.275000	0.619841
	5.280000	0.508024
	5.285000	0.485003
	5.290000	0.603397
	5.295000	0.619841
	5.300000	0.504736
	5.305000	0.488292
	5.310000	0.606686
	5.315000	0.619841
	5.320000	0.508024
	5.325000	0.488292
	5.330000	0.600109
	5.335000	0.619841
	5.340000	0.511313
	5.345000	0.494869
	5.350000	0.603397
	5.355000	0.619841
	5.360000	0.508024
	5.365000	0.491581
	5.370000	0.603397
	5.375000	0.623130
	5.380000	0.514602
	5.385000	0.494869
	5.390000	0.606686
	5.395000	0.623130
	5.400000	0.511313
	5.405000	0.494869
	5.410000	0.609975
	5.415000	0.623130
	5.420000	0.511313
	5.425000	0.494869
	5.430000	0.609975
	5.435000	0.619841
	5.440000	0.508024
	5.445000	0.498158
	5.450000	0.609975
	5.455000	0.623130
	5.460000	0.508024
	5.465000	0.494869
	5.470000	0.613263
	5.475000	0.623130
	5.480000	0.511313
	5.485000	0.491581
	5.490000	0.609975
	5.495000	0.623130
	5.500000	0.511313
	5.505000	0.498158
	5.510000	0.613263
	5.515000	0.626418
	5.520000	0.511313
	5.525000	0.501447
	5.530000	0.609975
	5.535000	0.629707
	5.540000	0.511313
	5.545000	0.498158
	5.550000	0.609975
	5.555000	0.626418
	5.560000	0.514602
	5.565000	0.501447
	5.570000	0.609975
	5.575000	0.629707
	5.580000	0.508024
	5.585000	0.498158
	5.590000	0.616552
	5.595000	0.626418
	5.600000	0.511313
	5.605000	0.501447
	5.610000	0.619841
	5.615000	0.626418
	5.620000	0.508024
	5.625000	0.504736
	5.630000	0.616552
	5.635000	0.629707
	5.640000	0.514602
	5.645000	0.504736
	5.650000	0.616552
	5.655000	0.626418
	5.660000	0.514602
	5.665000	0.504736
	5.670000	0.619841
	5.675000	0.629707
	5.680000	0.514602
	5.685000	0.508024
	5.690000	0.619841
	5.695000	0.626418
	5.700000	0.514602
	5.705000	0.501447
	5.710000	0.619841
	5.715000	0.629707
	5.720000	0.514602
	5.725000	0.508024
	5.730000	0.623130
	5.735000	0.629707
	5.740000	0.511313
	5.745000	0.504736
	5.750000	0.623130
	5.755000	0.629707
	5.760000	0.514602
	5.765000	0.508024
	5.770000	0.623130
	5.775000	0.632996
	5.780000	0.514602
	5.785000	0.508024
	5.790000	0.616552
	5.795000	0.626418
	5.800000	0.514602
	5.805000	0.504736
	5.810000	0.623130
	5.815000	0.629707
	5.820000	0.514602
	5.825000	0.514602
	5.830000	0.623130
	5.835000	0.626418
	5.840000	0.511313
	5.845000	0.511313
	5.850000	0.623130
	5.855000	0.626418
	5.860000	0.514602
	5.865000	0.508024
	5.870000	0.623130
	5.875000	0.626418
	5.880000	0.511313
	5.885000	0.508024
	5.890000	0.626418
	5.895000	0.626418
	5.900000	0.514602
	5.905000	0.508024
	5.910000	0.626418
	5.915000	0.629707
	5.920000	0.511313
	5.925000	0.508024
	5.930000	0.626418
	5.935000	0.623130
	5.940000	0.511313
	5.945000	0.514602
	5.950000	0.623130
	5.955000	0.629707
	5.960000	0.511313
	5.965000	0.511313
	5.970000	0.626418
	5.975000	0.626418
	5.980000	0.511313
	5.985000	0.514602
	5.990000	0.623130
	5.995000	0.623130
	6.000000	0.514602
	6.005000	0.511313
	6.010000	0.626418
	6.015000	0.626418
	6.020000	0.514602
	6.025000	0.511313
	6.030000	0.626418
	6.035000	0.629707
	6.040000	0.514602
	6.045000	0.514602
	6.050000	0.629707
	6.055000	0.626418
	6.060000	0.514602
	6.065000	0.514602
	6.070000	0.629707
	6.075000	0.629707
	6.080000	0.511313
	6.085000	0.511313
	6.090000	0.626418
	6.095000	0.626418
	6.100000	0.511313
	6.105000	0.514602
	6.110000	0.626418
	6.115000	0.626418
	6.120000	0.511313
	6.125000	0.514602
	6.130000	0.626418
	6.135000	0.626418
	6.140000	0.514602
	6.145000	0.514602
	6.150000	0.626418
	6.155000	0.626418
	6.160000	0.514602
	6.165000	0.514602
	6.170000	0.626418
	6.175000	0.626418
	6.180000	0.511313
	6.185000	0.514602
	6.190000	0.632996
	6.195000	0.629707
	6.200000	0.511313
	6.205000	0.514602
	6.210000	0.629707
	6.215000	0.629707
	6.220000	0.508024
	6.225000	0.517891
	6.230000	0.629707
	6.235000	0.623130
	6.240000	0.514602
	6.245000	0.517891
	6.250000	0.632996
	6.255000	0.626418
	6.260000	0.511313
	6.265000	0.517891
	6.270000	0.636285
	6.275000	0.626418
	6.280000	0.508024
	6.285000	0.521179
	6.290000	0.632996
	6.295000	0.626418
	6.300000	0.511313
	6.305000	0.517891
	6.310000	0.632996
	6.315000	0.626418
	6.320000	0.514602
	6.325000	0.521179
	6.330000	0.632996
	6.335000	0.629707
	6.340000	0.511313
	6.345000	0.521179
	6.350000	0.632996
	6.355000	0.626418
	6.360000	0.508024
	6.365000	0.521179
	6.370000	0.636285
	6.375000	0.626418
	6.380000	0.514602
	6.385000	0.524468
	6.390000	0.629707
	6.395000	0.626418
	6.400000	0.517891
	6.405000	0.521179
	6.410000	0.639573
	6.415000	0.629707
	6.420000	0.514602
	6.425000	0.521179
	6.430000	0.639573
	6.435000	0.636285
	6.440000	0.514602
	6.445000	0.527757
	6.450000	0.639573
	6.455000	0.632996
	6.460000	0.517891
	6.465000	0.531045
	6.470000	0.642862
	6.475000	0.629707
	6.480000	0.517891
	6.485000	0.527757
	6.490000	0.639573
	6.495000	0.636285
	6.500000	0.521179
	6.505000	0.531045
	6.510000	0.642862
	6.515000	0.636285
	6.520000	0.524468
	6.525000	0.534334
	6.530000	0.646151
	6.535000	0.639573
	6.540000	0.524468
	6.545000	0.537623
	6.550000	0.646151
	6.555000	0.636285
	6.560000	0.524468
	6.565000	0.534334
	6.570000	0.649439
	6.575000	0.639573
	6.580000	0.524468
	6.585000	0.534334
	6.590000	0.646151
	6.595000	0.632996
	6.600000	0.521179
	6.605000	0.540912
	6.610000	0.646151
	6.615000	0.636285
	6.620000	0.521179
	6.625000	0.537623
	6.630000	0.646151
	6.635000	0.636285
	6.640000	0.524468
	6.645000	0.537623
	6.650000	0.646151
	6.655000	0.636285
	6.660000	0.527757
	6.665000	0.537623
	6.670000	0.652728
	6.675000	0.632996
	6.680000	0.524468
	6.685000	0.544200
	6.690000	0.652728
	6.695000	0.639573
	6.700000	0.537623
	6.705000	0.550778
	6.710000	0.665883
	6.715000	0.649439
	6.720000	0.537623
	6.725000	0.560644
	6.730000	0.669172
	6.735000	0.652728
	6.740000	0.537623
	6.745000	0.554066
	6.750000	0.662594
	6.755000	0.646151
	6.760000	0.534334
	6.765000	0.547489
	6.770000	0.656017
	6.775000	0.639573
	6.780000	0.524468
	6.785000	0.544200
	6.790000	0.652728
	6.795000	0.636285
	6.800000	0.524468
	6.805000	0.540912
	6.810000	0.649439
	6.815000	0.626418
	6.820000	0.514602
	6.825000	0.534334
	6.830000	0.646151
	6.835000	0.626418
	6.840000	0.517891
	6.845000	0.534334
	6.850000	0.639573
	6.855000	0.623130
	6.860000	0.514602
	6.865000	0.534334
	6.870000	0.642862
	6.875000	0.619841
	6.880000	0.511313
	6.885000	0.531045
	6.890000	0.646151
	6.895000	0.623130
	6.900000	0.511313
	6.905000	0.531045
	6.910000	0.642862
	6.915000	0.623130
	6.920000	0.511313
	6.925000	0.531045
	6.930000	0.646151
	6.935000	0.623130
	6.940000	0.511313
	6.945000	0.537623
	6.950000	0.642862
	6.955000	0.626418
	6.960000	0.511313
	6.965000	0.534334
	6.970000	0.642862
	6.975000	0.623130
	6.980000	0.508024
	6.985000	0.531045
	6.990000	0.646151
	6.995000	0.619841
	7.000000	0.511313
	7.005000	0.534334
	7.010000	0.642862
	7.015000	0.619841
	7.020000	0.511313
	7.025000	0.534334
	7.030000	0.642862
	7.035000	0.619841
	7.040000	0.504736
	7.045000	0.531045
	7.050000	0.642862
	7.055000	0.623130
	7.060000	0.508024
	7.065000	0.534334
	7.070000	0.642862
	7.075000	0.619841
	7.080000	0.508024
	7.085000	0.537623
	7.090000	0.642862
	7.095000	0.619841
	7.100000	0.511313
	7.105000	0.537623
	7.110000	0.649439
	7.115000	0.619841
	7.120000	0.511313
	7.125000	0.534334
	7.130000	0.646151
	7.135000	0.626418
	7.140000	0.511313
	7.145000	0.537623
	7.150000	0.649439
	7.155000	0.623130
	7.160000	0.508024
	7.165000	0.540912
	7.170000	0.649439
	7.175000	0.619841
	7.180000	0.511313
	7.185000	0.537623
	7.190000	0.649439
	7.195000	0.623130
	7.200000	0.511313
	7.205000	0.537623
	7.210000	0.649439
	7.215000	0.626418
	7.220000	0.514602
	7.225000	0.540912
	7.230000	0.652728
	7.235000	0.623130
	7.240000	0.508024
	7.245000	0.540912
	7.250000	0.652728
	7.255000	0.619841
	7.260000	0.508024
	7.265000	0.540912
	7.270000	0.649439
	7.275000	0.623130
	7.280000	0.511313
	7.285000	0.544200
	7.290000	0.649439
	7.295000	0.619841
	7.300000	0.511313
	7.305000	0.540912
	7.310000	0.652728
	7.315000	0.623130
	7.320000	0.514602
	7.325000	0.537623
	7.330000	0.652728
	7.335000	0.626418
	7.340000	0.514602
	7.345000	0.544200
	7.350000	0.649439
	7.355000	0.623130
	7.360000	0.511313
	7.365000	0.540912
	7.370000	0.652728
	7.375000	0.616552
	7.380000	0.511313
	7.385000	0.544200
	7.390000	0.656017
	7.395000	0.623130
	7.400000	0.514602
	7.405000	0.544200
	7.410000	0.662594
	7.415000	0.623130
	7.420000	0.511313
	7.425000	0.547489
	7.430000	0.652728
	7.435000	0.623130
	7.440000	0.514602
	7.445000	0.544200
	7.450000	0.652728
	7.455000	0.616552
	7.460000	0.514602
	7.465000	0.544200
	7.470000	0.649439
	7.475000	0.619841
	7.480000	0.511313
	7.485000	0.547489
	7.490000	0.656017
	7.495000	0.619841
	7.500000	0.511313
	7.505000	0.547489
	7.510000	0.652728
	7.515000	0.623130
	7.520000	0.511313
	7.525000	0.540912
	7.530000	0.656017
	7.535000	0.619841
	7.540000	0.514602
	7.545000	0.547489
	7.550000	0.659306
	7.555000	0.619841
	7.560000	0.508024
	7.565000	0.544200
	7.570000	0.656017
	7.575000	0.623130
	7.580000	0.514602
	7.585000	0.550778
	7.590000	0.656017
	7.595000	0.619841
	7.600000	0.514602
	7.605000	0.544200
	7.610000	0.652728
	7.615000	0.619841
	7.620000	0.511313
	7.625000	0.547489
	7.630000	0.659306
	7.635000	0.619841
	7.640000	0.511313
	7.645000	0.550778
	7.650000	0.659306
	7.655000	0.616552
	7.660000	0.511313
	7.665000	0.550778
	7.670000	0.662594
	7.675000	0.619841
	7.680000	0.514602
	7.685000	0.550778
	7.690000	0.659306
	7.695000	0.619841
	7.700000	0.511313
	7.705000	0.547489
	7.710000	0.662594
	7.715000	0.623130
	7.720000	0.514602
	7.725000	0.554066
	7.730000	0.656017
	7.735000	0.619841
	7.740000	0.511313
	7.745000	0.550778
	7.750000	0.662594
	7.755000	0.619841
	7.760000	0.511313
	7.765000	0.550778
	7.770000	0.662594
	7.775000	0.619841
	7.780000	0.511313
	7.785000	0.554066
	7.790000	0.659306
	7.795000	0.619841
	7.800000	0.514602
	7.805000	0.547489
	7.810000	0.659306
	7.815000	0.619841
	7.820000	0.514602
	7.825000	0.550778
	7.830000	0.659306
	7.835000	0.619841
	7.840000	0.511313
	7.845000	0.554066
	7.850000	0.662594
	7.855000	0.619841
	7.860000	0.511313
	7.865000	0.557355
	7.870000	0.662594
	7.875000	0.619841
	7.880000	0.514602
	7.885000	0.554066
	7.890000	0.662594
	7.895000	0.616552
	7.900000	0.514602
	7.905000	0.550778
	7.910000	0.665883
	7.915000	0.619841
	7.920000	0.517891
	7.925000	0.557355
	7.930000	0.665883
	7.935000	0.616552
	7.940000	0.514602
	7.945000	0.557355
	7.950000	0.669172
	7.955000	0.616552
	7.960000	0.514602
	7.965000	0.554066
	7.970000	0.662594
	7.975000	0.619841
	7.980000	0.511313
	7.985000	0.557355
	7.990000	0.662594
	7.995000	0.619841
	8.000000	0.508024
	8.005000	0.557355
	8.010000	0.665883
	8.015000	0.619841
	8.020000	0.511313
	8.025000	0.557355
	8.030000	0.665883
	8.035000	0.623130
	8.040000	0.511313
	8.045000	0.557355
	8.050000	0.662594
	8.055000	0.616552
	8.060000	0.514602
	8.065000	0.560644
	8.070000	0.665883
	8.075000	0.616552
	8.080000	0.511313
	8.085000	0.560644
	8.090000	0.662594
	8.095000	0.619841
	8.100000	0.511313
	8.105000	0.557355
	8.110000	0.662594
	8.115000	0.616552
	8.120000	0.514602
	8.125000	0.557355
	8.130000	0.662594
	8.135000	0.619841
	8.140000	0.514602
	8.145000	0.560644
	8.150000	0.665883
	8.155000	0.623130
	8.160000	0.514602
	8.165000	0.567221
	8.170000	0.669172
	8.175000	0.626418
	8.180000	0.517891
	8.185000	0.567221
	8.190000	0.665883
	8.195000	0.619841
	8.200000	0.517891
	8.205000	0.570510
	8.210000	0.665883
	8.215000	0.619841
	8.220000	0.514602
	8.225000	0.567221
	8.230000	0.672460
	8.235000	0.619841
	8.240000	0.521179
	8.245000	0.570510
	8.250000	0.672460
	8.255000	0.619841
	8.260000	0.517891
	8.265000	0.567221
	8.270000	0.672460
	8.275000	0.619841
	8.280000	0.517891
	8.285000	0.567221
	8.290000	0.669172
	8.295000	0.623130
	8.300000	0.521179
	8.305000	0.570510
	8.310000	0.669172
	8.315000	0.623130
	8.320000	0.521179
	8.325000	0.573799
	8.330000	0.669172
	8.335000	0.619841
	8.340000	0.517891
	8.345000	0.567221
	8.350000	0.669172
	8.355000	0.619841
	8.360000	0.524468
	8.365000	0.567221
	8.370000	0.665883
	8.375000	0.619841
	8.380000	0.521179
	8.385000	0.570510
	8.390000	0.675749
	8.395000	0.623130
	8.400000	0.527757
	8.405000	0.577088
	8.410000	0.682327
	8.415000	0.632996
	8.420000	0.534334
	8.425000	0.583665
	8.430000	0.685615
	8.435000	0.639573
	8.440000	0.534334
	8.445000	0.583665
	8.450000	0.682327
	8.455000	0.632996
	8.460000	0.534334
	8.465000	0.583665
	8.470000	0.679038
	8.475000	0.626418
	8.480000	0.524468
	8.485000	0.577088
	8.490000	0.679038
	8.495000	0.623130
	8.500000	0.524468
	8.505000	0.577088
	8.510000	0.672460
	8.515000	0.619841
	8.520000	0.517891
	8.525000	0.570510
	8.530000	0.669172
	8.535000	0.616552
	8.540000	0.514602
	8.545000	0.567221
	8.550000	0.665883
	8.555000	0.609975
	8.560000	0.511313
	8.565000	0.567221
	8.570000	0.665883
	8.575000	0.606686
	8.580000	0.511313
	8.585000	0.567221
	8.590000	0.665883
	8.595000	0.609975
	8.600000	0.504736
	8.605000	0.563933
	8.610000	0.665883
	8.615000	0.609975
	8.620000	0.511313
	8.625000	0.563933
	8.630000	0.665883
	8.635000	0.606686
	8.640000	0.508024
	8.645000	0.563933
	8.650000	0.665883
	8.655000	0.603397
	8.660000	0.508024
	8.665000	0.560644
	8.670000	0.665883
	8.675000	0.606686
	8.680000	0.508024
	8.685000	0.560644
	8.690000	0.662594
	8.695000	0.603397
	8.700000	0.501447
	8.705000	0.567221
	8.710000	0.662594
	8.715000	0.603397
	8.720000	0.501447
	8.725000	0.563933
	8.730000	0.659306
	8.735000	0.600109
	8.740000	0.508024
	8.745000	0.560644
	8.750000	0.659306
	8.755000	0.603397
	8.760000	0.501447
	8.765000	0.563933
	8.770000	0.662594
	8.775000	0.603397
	8.780000	0.504736
	8.785000	0.567221
	8.790000	0.665883
	8.795000	0.606686
	8.800000	0.504736
	8.805000	0.563933
	8.810000	0.659306
	8.815000	0.603397
	8.820000	0.508024
	8.825000	0.567221
	8.830000	0.665883
	8.835000	0.606686
	8.840000	0.508024
	8.845000	0.563933
	8.850000	0.665883
	8.855000	0.603397
	8.860000	0.504736
	8.865000	0.563933
	8.870000	0.662594
	8.875000	0.603397
	8.880000	0.504736
	8.885000	0.570510
	8.890000	0.665883
	8.895000	0.606686
	8.900000	0.508024
	8.905000	0.573799
	8.910000	0.665883
	8.915000	0.603397
	8.920000	0.511313
	8.925000	0.570510
	8.930000	0.665883
	8.935000	0.603397
	8.940000	0.504736
	8.945000	0.567221
	8.950000	0.665883
	8.955000	0.603397
	8.960000	0.504736
	8.965000	0.573799
	8.970000	0.665883
	8.975000	0.600109
	8.980000	0.508024
	8.985000	0.573799
	8.990000	0.669172
	8.995000	0.603397
	9.000000	0.504736
	9.005000	0.573799
	9.010000	0.669172
	9.015000	0.603397
	9.020000	0.511313
	9.025000	0.570510
	9.030000	0.672460
	9.035000	0.603397
	9.040000	0.511313
	9.045000	0.570510
	9.050000	0.665883
	9.055000	0.606686
	9.060000	0.511313
	9.065000	0.573799
	9.070000	0.662594
	9.075000	0.600109
	9.080000	0.508024
	9.085000	0.570510
	9.090000	0.669172
	9.095000	0.600109
	9.100000	0.511313
	9.105000	0.573799
	9.110000	0.669172
	9.115000	0.600109
	9.120000	0.508024
	9.125000	0.573799
	9.130000	0.669172
	9.135000	0.600109
	9.140000	0.511313
	9.145000	0.577088
	9.150000	0.669172
	9.155000	0.603397
	9.160000	0.511313
	9.165000	0.580376
	9.170000	0.672460
	9.175000	0.603397
	9.180000	0.511313
	9.185000	0.577088
	9.190000	0.665883
	9.195000	0.600109
	9.200000	0.511313
	9.205000	0.577088
	9.210000	0.672460
	9.215000	0.603397
	9.220000	0.508024
	9.225000	0.577088
	9.230000	0.669172
	9.235000	0.600109
	9.240000	0.511313
	9.245000	0.577088
	9.250000	0.665883
	9.255000	0.603397
	9.260000	0.511313
	9.265000	0.573799
	9.270000	0.665883
	9.275000	0.596820
	9.280000	0.504736
	9.285000	0.573799
	9.290000	0.669172
	9.295000	0.600109
	9.300000	0.508024
	9.305000	0.580376
	9.310000	0.665883
	9.315000	0.596820
	9.320000	0.504736
	9.325000	0.573799
	9.330000	0.669172
	9.335000	0.593531
	9.340000	0.501447
	9.345000	0.573799
	9.350000	0.665883
	9.355000	0.596820
	9.360000	0.501447
	9.365000	0.577088
	9.370000	0.669172
	9.375000	0.596820
	9.380000	0.504736
	9.385000	0.580376
	9.390000	0.665883
	9.395000	0.593531
	9.400000	0.504736
	9.405000	0.577088
	9.410000	0.669172
	9.415000	0.596820
	9.420000	0.504736
	9.425000	0.577088
	9.430000	0.669172
	9.435000	0.600109
	9.440000	0.511313
	9.445000	0.577088
	9.450000	0.672460
	9.455000	0.600109
	9.460000	0.504736
	9.465000	0.580376
	9.470000	0.672460
	9.475000	0.593531
	9.480000	0.508024
	9.485000	0.580376
	9.490000	0.665883
	9.495000	0.596820
	9.500000	0.504736
	9.505000	0.583665
	9.510000	0.669172
	9.515000	0.596820
	9.520000	0.508024
	9.525000	0.580376
	9.530000	0.662594
	9.535000	0.596820
	9.540000	0.504736
	9.545000	0.586954
	9.550000	0.672460
	9.555000	0.593531
	9.560000	0.504736
	9.565000	0.580376
	9.570000	0.669172
	9.575000	0.596820
	9.580000	0.511313
	9.585000	0.583665
	9.590000	0.672460
	9.595000	0.596820
	9.600000	0.511313
	9.605000	0.590242
	9.610000	0.672460
	9.615000	0.596820
	9.620000	0.511313
	9.625000	0.583665
	9.630000	0.675749
	9.635000	0.596820
	9.640000	0.511313
	9.645000	0.583665
	9.650000	0.672460
	9.655000	0.596820
	9.660000	0.511313
	9.665000	0.590242
	9.670000	0.679038
	9.675000	0.603397
	9.680000	0.511313
	9.685000	0.590242
	9.690000	0.679038
	9.695000	0.606686
	9.700000	0.514602
	9.705000	0.590242
	9.710000	0.679038
	9.715000	0.606686
	9.720000	0.514602
	9.725000	0.596820
	9.730000	0.682327
	9.735000	0.606686
	9.740000	0.521179
	9.745000	0.596820
	9.750000	0.682327
	9.755000	0.606686
	9.760000	0.514602
	9.765000	0.600109
	9.770000	0.682327
	9.775000	0.603397
	9.780000	0.521179
	9.785000	0.596820
	9.790000	0.679038
	9.795000	0.603397
	9.800000	0.521179
	9.805000	0.596820
	9.810000	0.675749
	9.815000	0.603397
	9.820000	0.517891
	9.825000	0.593531
	9.830000	0.679038
	9.835000	0.600109
	9.840000	0.517891
	9.845000	0.590242
	9.850000	0.675749
	9.855000	0.596820
	9.860000	0.514602
	9.865000	0.590242
	9.870000	0.682327
	9.875000	0.596820
	9.880000	0.514602
	9.885000	0.593531
	9.890000	0.679038
	9.895000	0.593531
	9.900000	0.514602
	9.905000	0.590242
	9.910000	0.675749
	9.915000	0.596820
	9.920000	0.514602
	9.925000	0.593531
	9.930000	0.672460
	9.935000	0.596820
	9.940000	0.511313
	9.945000	0.590242
	9.950000	0.672460
	9.955000	0.590242
	9.960000	0.514602
	9.965000	0.593531
	9.970000	0.675749
	9.975000	0.593531
	9.980000	0.511313
	9.985000	0.596820
	9.990000	0.675749
	9.995000	0.593531
	10.000000	0.517891
	10.005000	0.593531
	10.010000	0.675749
	10.015000	0.596820
	10.020000	0.514602
	10.025000	0.596820
	10.030000	0.672460
	10.035000	0.600109
	10.040000	0.517891
	10.045000	0.596820
	10.050000	0.682327
	10.055000	0.600109
	10.060000	0.517891
	10.065000	0.600109
	10.070000	0.675749
	10.075000	0.596820
	10.080000	0.514602
	10.085000	0.593531
	10.090000	0.675749
	10.095000	0.600109
	10.100000	0.517891
	10.105000	0.603397
	10.110000	0.679038
	10.115000	0.593531
	10.120000	0.524468
	10.125000	0.600109
	10.130000	0.675749
	10.135000	0.603397
	10.140000	0.524468
	10.145000	0.600109
	10.150000	0.679038
	10.155000	0.600109
	10.160000	0.524468
	10.165000	0.606686
	10.170000	0.679038
	10.175000	0.596820
	10.180000	0.521179
	10.185000	0.603397
	10.190000	0.679038
	10.195000	0.600109
	10.200000	0.524468
	10.205000	0.606686
	10.210000	0.675749
	10.215000	0.596820
	10.220000	0.524468
	10.225000	0.600109
	10.230000	0.679038
	10.235000	0.593531
	10.240000	0.521179
	10.245000	0.606686
	10.250000	0.682327
	10.255000	0.600109
	10.260000	0.524468
	10.265000	0.613263
	10.270000	0.688904
	10.275000	0.609975
	10.280000	0.540912
	10.285000	0.629707
	10.290000	0.698770
	10.295000	0.623130
	10.300000	0.544200
	10.305000	0.629707
	10.310000	0.695482
	10.315000	0.613263
	10.320000	0.537623
	10.325000	0.626418
	10.330000	0.695482
	10.335000	0.609975
	10.340000	0.537623
	10.345000	0.613263
	10.350000	0.688904
	10.355000	0.603397
	10.360000	0.531045
	10.365000	0.609975
	10.370000	0.682327
	10.375000	0.600109
	10.380000	0.524468
	10.385000	0.606686
	10.390000	0.679038
	10.395000	0.593531
	10.400000	0.517891
	10.405000	0.603397
	10.410000	0.675749
	10.415000	0.586954
	10.420000	0.514602
	10.425000	0.596820
	10.430000	0.669172
	10.435000	0.583665
	10.440000	0.508024
	10.445000	0.600109
	10.450000	0.669172
	10.455000	0.580376
	10.460000	0.508024
	10.465000	0.593531
	10.470000	0.665883
	10.475000	0.573799
	10.480000	0.504736
	10.485000	0.593531
	10.490000	0.662594
	10.495000	0.573799
	10.500000	0.498158
	10.505000	0.586954
	10.510000	0.656017
	10.515000	0.560644
	10.520000	0.488292
	10.525000	0.573799
	10.530000	0.646151
	10.535000	0.550778
	10.540000	0.481715
	10.545000	0.570510
	10.550000	0.639573
	10.555000	0.554066
	10.560000	0.478426
	10.565000	0.570510
	10.570000	0.642862
	10.575000	0.547489
	10.580000	0.481715
	10.585000	0.567221
	10.590000	0.642862
	10.595000	0.547489
	10.600000	0.478426
	10.605000	0.567221
	10.610000	0.636285
	10.615000	0.547489
	10.620000	0.478426
	10.625000	0.570510
	10.630000	0.639573
	10.635000	0.547489
	10.640000	0.478426
	10.645000	0.570510
	10.650000	0.636285
	10.655000	0.547489
	10.660000	0.478426
	10.665000	0.563933
	10.670000	0.639573
	10.675000	0.547489
	10.680000	0.475137
	10.685000	0.567221
	10.690000	0.642862
	10.695000	0.550778
	10.700000	0.481715
	10.705000	0.573799
	10.710000	0.649439
	10.715000	0.550778
	10.720000	0.481715
	10.725000	0.570510
	10.730000	0.639573
	10.735000	0.550778
	10.740000	0.485003
	10.745000	0.573799
	10.750000	0.632996
	10.755000	0.547489
	10.760000	0.478426
	10.765000	0.567221
	10.770000	0.632996
	10.775000	0.544200
	10.780000	0.475137
	10.785000	0.570510
	10.790000	0.632996
	10.795000	0.537623
	10.800000	0.471848
	10.805000	0.567221
	10.810000	0.636285
	10.815000	0.540912
	10.820000	0.471848
	10.825000	0.570510
	10.830000	0.636285
	10.835000	0.540912
	10.840000	0.475137
	10.845000	0.570510
	10.850000	0.639573
	10.855000	0.540912
	10.860000	0.478426
	10.865000	0.570510
	10.870000	0.639573
	10.875000	0.537623
	10.880000	0.475137
	10.885000	0.573799
	10.890000	0.636285
	10.895000	0.544200
	10.900000	0.478426
	10.905000	0.573799
	10.910000	0.636285
	10.915000	0.540912
	10.920000	0.478426
	10.925000	0.573799
	10.930000	0.639573
	10.935000	0.547489
	10.940000	0.485003
	10.945000	0.573799
	10.950000	0.642862
	10.955000	0.547489
	10.960000	0.485003
	10.965000	0.577088
	10.970000	0.646151
	10.975000	0.544200
	10.980000	0.481715
	10.985000	0.577088
	10.990000	0.642862
	10.995000	0.547489
	11.000000	0.478426
	11.005000	0.580376
	11.010000	0.642862
	11.015000	0.544200
	11.020000	0.488292
	11.025000	0.577088
	11.030000	0.642862
	11.035000	0.547489
	11.040000	0.485003
	11.045000	0.583665
	11.050000	0.646151
	11.055000	0.544200
	11.060000	0.488292
	11.065000	0.583665
	11.070000	0.646151
	11.075000	0.550778
	11.080000	0.485003
	11.085000	0.586954
	11.090000	0.649439
	11.095000	0.544200
	11.100000	0.488292
	11.105000	0.583665
	11.110000	0.646151
	11.115000	0.547489
	11.120000	0.485003
	11.125000	0.583665
	11.130000	0.646151
	11.135000	0.550778
	11.140000	0.485003
	11.145000	0.590242
	11.150000	0.646151
	11.155000	0.550778
	11.160000	0.494869
	11.165000	0.593531
	11.170000	0.646151
	11.175000	0.547489
	11.180000	0.491581
	11.185000	0.586954
	11.190000	0.649439
	11.195000	0.547489
	11.200000	0.491581
	11.205000	0.593531
	11.210000	0.646151
	11.215000	0.547489
	11.220000	0.488292
	11.225000	0.583665
	11.230000	0.646151
	11.235000	0.544200
	11.240000	0.485003
	11.245000	0.583665
	11.250000	0.646151
	11.255000	0.544200
	11.260000	0.488292
	11.265000	0.590242
	11.270000	0.646151
	11.275000	0.540912
	11.280000	0.485003
	11.285000	0.593531
	11.290000	0.646151
	11.295000	0.544200
	11.300000	0.488292
	11.305000	0.590242
	11.310000	0.646151
	11.315000	0.547489
	11.320000	0.488292
	11.325000	0.590242
	11.330000	0.649439
	11.335000	0.540912
	11.340000	0.491581
	11.345000	0.593531
	11.350000	0.642862
	11.355000	0.547489
	11.360000	0.488292
	11.365000	0.593531
	11.370000	0.646151
	11.375000	0.550778
	11.380000	0.498158
	11.385000	0.596820
	11.390000	0.649439
	11.395000	0.550778
	11.400000	0.491581
	11.405000	0.600109
	11.410000	0.652728
	11.415000	0.547489
	11.420000	0.498158
	11.425000	0.593531
	11.430000	0.649439
	11.435000	0.550778
	11.440000	0.494869
	11.445000	0.596820
	11.450000	0.649439
	11.455000	0.554066
	11.460000	0.498158
	11.465000	0.603397
	11.470000	0.656017
	11.475000	0.550778
	11.480000	0.501447
	11.485000	0.600109
	11.490000	0.656017
	11.495000	0.547489
	11.500000	0.501447
	11.505000	0.603397
	11.510000	0.656017
	11.515000	0.550778
	11.520000	0.501447
	11.525000	0.606686
	11.530000	0.652728
	11.535000	0.550778
	11.540000	0.498158
	11.545000	0.600109
	11.550000	0.656017
	11.555000	0.547489
	11.560000	0.501447
	11.565000	0.596820
	11.570000	0.649439
	11.575000	0.547489
	11.580000	0.501447
	11.585000	0.600109
	11.590000	0.649439
	11.595000	0.547489
	11.600000	0.498158
	11.605000	0.593531
	11.610000	0.642862
	11.615000	0.547489
	11.620000	0.488292
	11.625000	0.596820
	11.630000	0.642862
	11.635000	0.540912
	11.640000	0.488292
	11.645000	0.590242
	11.650000	0.636285
	11.655000	0.537623
	11.660000	0.485003
	11.665000	0.583665
	11.670000	0.639573
	11.675000	0.537623
	11.680000	0.488292
	11.685000	0.590242
	11.690000	0.636285
	11.695000	0.537623
	11.700000	0.485003
	11.705000	0.590242
	11.710000	0.639573
	11.715000	0.537623
	11.720000	0.491581
	11.725000	0.593531
	11.730000	0.642862
	11.735000	0.537623
	11.740000	0.494869
	11.745000	0.596820
	11.750000	0.642862
	11.755000	0.540912
	11.760000	0.491581
	11.765000	0.593531
	11.770000	0.642862
	11.775000	0.537623
	11.780000	0.498158
	11.785000	0.593531
	11.790000	0.642862
	11.795000	0.540912
	11.800000	0.498158
	11.805000	0.600109
	11.810000	0.642862
	11.815000	0.537623
	11.820000	0.494869
	11.825000	0.596820
	11.830000	0.642862
	11.835000	0.540912
	11.840000	0.498158
	11.845000	0.603397
	11.850000	0.642862
	11.855000	0.544200
	11.860000	0.494869
	11.865000	0.596820
	11.870000	0.642862
	11.875000	0.544200
	11.880000	0.501447
	11.885000	0.603397
	11.890000	0.642862
	11.895000	0.544200
	11.900000	0.501447
	11.905000	0.603397
	11.910000	0.646151
	11.915000	0.537623
	11.920000	0.501447
	11.925000	0.606686
	11.930000	0.649439
	11.935000	0.547489
	11.940000	0.504736
	11.945000	0.609975
	11.950000	0.659306
	11.955000	0.560644
	11.960000	0.524468
	11.965000	0.629707
	11.970000	0.675749
	11.975000	0.577088
	11.980000	0.537623
	11.985000	0.639573
	11.990000	0.679038
	11.995000	0.577088
	12.000000	0.534334
	12.005000	0.636285
	12.010000	0.675749
	12.015000	0.570510
	12.020000	0.527757
	12.025000	0.629707
	12.030000	0.665883
	12.035000	0.560644
	12.040000	0.517891
	12.045000	0.623130
	12.050000	0.659306
	12.055000	0.554066
	12.060000	0.511313
	12.065000	0.616552
	12.070000	0.646151
	12.075000	0.547489
	12.080000	0.511313
	12.085000	0.609975
	12.090000	0.646151
	12.095000	0.547489
	12.100000	0.508024
	12.105000	0.609975
	12.110000	0.646151
	12.115000	0.537623
	12.120000	0.501447
	12.125000	0.603397
	12.130000	0.642862
	12.135000	0.537623
	12.140000	0.498158
	12.145000	0.603397
	12.150000	0.639573
	12.155000	0.534334
	12.160000	0.498158
	12.165000	0.603397
	12.170000	0.639573
	12.175000	0.534334
	12.180000	0.491581
	12.185000	0.600109
	12.190000	0.636285
	12.195000	0.531045
	12.200000	0.494869
	12.205000	0.603397
	12.210000	0.632996
	12.215000	0.527757
	12.220000	0.491581
	12.225000	0.593531
	12.230000	0.632996
	12.235000	0.524468
	12.240000	0.488292
	12.245000	0.596820
	12.250000	0.629707
	12.255000	0.524468
	12.260000	0.485003
	12.265000	0.596820
	12.270000	0.632996
	12.275000	0.521179
	12.280000	0.491581
	12.285000	0.593531
	12.290000	0.626418
	12.295000	0.517891
	12.300000	0.485003
	12.305000	0.596820
	12.310000	0.632996
	12.315000	0.524468
	12.320000	0.488292
	12.325000	0.596820
	12.330000	0.632996
	12.335000	0.524468
	12.340000	0.491581
	12.345000	0.600109
	12.350000	0.626418
	12.355000	0.521179
	12.360000	0.491581
	12.365000	0.593531
	12.370000	0.632996
	12.375000	0.521179
	12.380000	0.485003
	12.385000	0.596820
	12.390000	0.629707
	12.395000	0.521179
	12.400000	0.491581
	12.405000	0.593531
	12.410000	0.629707
	12.415000	0.524468
	12.420000	0.491581
	12.425000	0.600109
	12.430000	0.629707
	12.435000	0.521179
	12.440000	0.488292
	12.445000	0.600109
	12.450000	0.632996
	12.455000	0.524468
	12.460000	0.491581
	12.465000	0.603397
	12.470000	0.636285
	12.475000	0.521179
	12.480000	0.491581
	12.485000	0.603397
	12.490000	0.636285
	12.495000	0.517891
	12.500000	0.491581
	12.505000	0.606686
	12.510000	0.639573
	12.515000	0.521179
	12.520000	0.494869
	12.525000	0.603397
	12.530000	0.629707
	12.535000	0.524468
	12.540000	0.494869
	12.545000	0.600109
	12.550000	0.636285
	12.555000	0.521179
	12.560000	0.494869
	12.565000	0.609975
	12.570000	0.632996
	12.575000	0.524468
	12.580000	0.494869
	12.585000	0.603397
	12.590000	0.636285
	12.595000	0.521179
	12.600000	0.494869
	12.605000	0.603397
	12.610000	0.636285
	12.615000	0.524468
	12.620000	0.494869
	12.625000	0.606686
	12.630000	0.632996
	12.635000	0.521179
	12.640000	0.494869
	12.645000	0.609975
	12.650000	0.632996
	12.655000	0.521179
	12.660000	0.498158
	12.665000	0.600109
	12.670000	0.632996
	12.675000	0.521179
	12.680000	0.494869
	12.685000	0.609975
	12.690000	0.632996
	12.695000	0.517891
	12.700000	0.494869
	12.705000	0.606686
	12.710000	0.629707
	12.715000	0.517891
	12.720000	0.498158
	12.725000	0.609975
	12.730000	0.629707
	12.735000	0.517891
	12.740000	0.494869
	12.745000	0.606686
	12.750000	0.626418
	12.755000	0.514602
	12.760000	0.498158
	12.765000	0.606686
	12.770000	0.629707
	12.775000	0.514602
	12.780000	0.494869
	12.785000	0.606686
	12.790000	0.632996
	12.795000	0.517891
	12.800000	0.498158
	12.805000	0.609975
	12.810000	0.629707
	12.815000	0.517891
	12.820000	0.498158
	12.825000	0.609975
	12.830000	0.629707
	12.835000	0.514602
	12.840000	0.498158
	12.845000	0.609975
	12.850000	0.629707
	12.855000	0.517891
	12.860000	0.501447
	12.865000	0.606686
	12.870000	0.632996
	12.875000	0.517891
	12.880000	0.501447
	12.885000	0.613263
	12.890000	0.629707
	12.895000	0.514602
	12.900000	0.498158
	12.905000	0.613263
	12.910000	0.626418
	12.915000	0.514602
	12.920000	0.498158
	12.925000	0.613263
	12.930000	0.629707
	12.935000	0.517891
	12.940000	0.498158
	12.945000	0.613263
	12.950000	0.629707
	12.955000	0.514602
	12.960000	0.494869
	12.965000	0.609975
	12.970000	0.632996
	12.975000	0.514602
	12.980000	0.501447
	12.985000	0.613263
	12.990000	0.632996
	12.995000	0.514602
	13.000000	0.501447
	13.005000	0.613263
	13.010000	0.629707
	13.015000	0.517891
	13.020000	0.498158
	13.025000	0.616552
	13.030000	0.632996
	13.035000	0.514602
	13.040000	0.501447
	13.045000	0.609975
	13.050000	0.629707
	13.055000	0.514602
	13.060000	0.501447
	13.065000	0.616552
	13.070000	0.632996
	13.075000	0.514602
	13.080000	0.504736
	13.085000	0.616552
	13.090000	0.632996
	13.095000	0.511313
	13.100000	0.504736
	13.105000	0.613263
	13.110000	0.626418
	13.115000	0.514602
	13.120000	0.501447
	13.125000	0.616552
	13.130000	0.629707
	13.135000	0.517891
	13.140000	0.501447
	13.145000	0.616552
	13.150000	0.626418
	13.155000	0.514602
	13.160000	0.501447
	13.165000	0.616552
	13.170000	0.629707
	13.175000	0.514602
	13.180000	0.504736
	13.185000	0.616552
	13.190000	0.629707
	13.195000	0.511313
	13.200000	0.501447
	13.205000	0.616552
	13.210000	0.629707
	13.215000	0.514602
	13.220000	0.504736
	13.225000	0.616552
	13.230000	0.629707
	13.235000	0.511313
	13.240000	0.501447
	13.245000	0.619841
	13.250000	0.629707
	13.255000	0.514602
	13.260000	0.501447
	13.265000	0.616552
	13.270000	0.629707
	13.275000	0.511313
	13.280000	0.501447
	13.285000	0.616552
	13.290000	0.632996
	13.295000	0.514602
	13.300000	0.504736
	13.305000	0.616552
	13.310000	0.629707
	13.315000	0.514602
	13.320000	0.501447
	13.325000	0.619841
	13.330000	0.629707
	13.335000	0.508024
	13.340000	0.501447
	13.345000	0.619841
	13.350000	0.626418
	13.355000	0.511313
	13.360000	0.501447
	13.365000	0.619841
	13.370000	0.626418
	13.375000	0.511313
	13.380000	0.504736
	13.385000	0.616552
	13.390000	0.626418
	13.395000	0.511313
	13.400000	0.501447
	13.405000	0.619841
	13.410000	0.626418
	13.415000	0.511313
	13.420000	0.504736
	13.425000	0.619841
	13.430000	0.623130
	13.435000	0.511313
	13.440000	0.501447
	13.445000	0.619841
	13.450000	0.623130
	13.455000	0.511313
	13.460000	0.501447
	13.465000	0.619841
	13.470000	0.626418
	13.475000	0.511313
	13.480000	0.508024
	13.485000	0.616552
	13.490000	0.623130
	13.495000	0.508024
	13.500000	0.504736
	13.505000	0.616552
	13.510000	0.619841
	13.515000	0.508024
	13.520000	0.504736
	13.525000	0.616552
	13.530000	0.623130
	13.535000	0.508024
	13.540000	0.504736
	13.545000	0.623130
	13.550000	0.623130
	13.555000	0.508024
	13.560000	0.501447
	13.565000	0.616552
	13.570000	0.626418
	13.575000	0.504736
	13.580000	0.504736
	13.585000	0.619841
	13.590000	0.619841
	13.595000	0.504736
	13.600000	0.504736
	13.605000	0.623130
	13.610000	0.623130
	13.615000	0.508024
	13.620000	0.508024
	13.625000	0.616552
	13.630000	0.619841
	13.635000	0.514602
	13.640000	0.504736
	13.645000	0.623130
	13.650000	0.619841
	13.655000	0.504736
	13.660000	0.508024
	13.665000	0.623130
	13.670000	0.623130
	13.675000	0.508024
	13.680000	0.504736
	13.685000	0.629707
	13.690000	0.623130
	13.695000	0.504736
	13.700000	0.511313
	13.705000	0.616552
	13.710000	0.626418
	13.715000	0.508024
	13.720000	0.514602
	13.725000	0.619841
	13.730000	0.623130
	13.735000	0.514602
	13.740000	0.511313
	13.745000	0.619841
	13.750000	0.623130
	13.755000	0.511313
	13.760000	0.514602
	13.765000	0.623130
	13.770000	0.626418
	13.775000	0.511313
	13.780000	0.514602
	13.785000	0.619841
	13.790000	0.623130
	13.795000	0.514602
	13.800000	0.514602
	13.805000	0.626418
	13.810000	0.626418
	13.815000	0.508024
	13.820000	0.511313
	13.825000	0.626418
	13.830000	0.623130
	13.835000	0.511313
	13.840000	0.514602
	13.845000	0.626418
	13.850000	0.629707
	13.855000	0.517891
	13.860000	0.531045
	13.865000	0.639573
	13.870000	0.639573
	13.875000	0.531045
	13.880000	0.531045
	13.885000	0.646151
	13.890000	0.646151
	13.895000	0.534334
	13.900000	0.537623
	13.905000	0.649439
	13.910000	0.642862
	13.915000	0.527757
	13.920000	0.537623
	13.925000	0.642862
	13.930000	0.639573
	13.935000	0.527757
	13.940000	0.531045
	13.945000	0.639573
	13.950000	0.632996
	13.955000	0.521179
	13.960000	0.527757
	13.965000	0.632996
	13.970000	0.629707
	13.975000	0.514602
	13.980000	0.517891
	13.985000	0.629707
	13.990000	0.626418
	13.995000	0.517891
	14.000000	0.521179
	14.005000	0.632996
	14.010000	0.619841
	14.015000	0.504736
	14.020000	0.514602
	14.025000	0.629707
	14.030000	0.616552
	14.035000	0.504736
	14.040000	0.514602
	14.045000	0.626418
	14.050000	0.619841
	14.055000	0.504736
	14.060000	0.514602
	14.065000	0.626418
	14.070000	0.616552
	14.075000	0.504736
	14.080000	0.517891
	14.085000	0.626418
	14.090000	0.613263
	14.095000	0.501447
	14.100000	0.511313
	14.105000	0.629707
	14.110000	0.616552
	14.115000	0.498158
	14.120000	0.511313
	14.125000	0.619841
	14.130000	0.613263
	14.135000	0.498158
	14.140000	0.511313
	14.145000	0.623130
	14.150000	0.609975
	14.155000	0.494869
	14.160000	0.511313
	14.165000	0.616552
	14.170000	0.603397
	14.175000	0.491581
	14.180000	0.504736
	14.185000	0.616552
	14.190000	0.606686
	14.195000	0.491581
	14.200000	0.508024
	14.205000	0.616552
	14.210000	0.603397
	14.215000	0.491581
	14.220000	0.508024
	14.225000	0.619841
	14.230000	0.609975
	14.235000	0.491581
	14.240000	0.508024
	14.245000	0.619841
	14.250000	0.606686
	14.255000	0.491581
	14.260000	0.508024
	14.265000	0.619841
	14.270000	0.606686
	14.275000	0.494869
	14.280000	0.508024
	14.285000	0.619841
	14.290000	0.606686
	14.295000	0.494869
	14.300000	0.508024
	14.305000	0.619841
	14.310000	0.609975
	14.315000	0.491581
	14.320000	0.508024
	14.325000	0.619841
	14.330000	0.606686
	14.335000	0.491581
	14.340000	0.508024
	14.345000	0.623130
	14.350000	0.606686
	14.355000	0.494869
	14.360000	0.511313
	14.365000	0.616552
	14.370000	0.606686
	14.375000	0.491581
	14.380000	0.511313
	14.385000	0.619841
	14.390000	0.606686
	14.395000	0.491581
	14.400000	0.508024
	14.405000	0.619841
	14.410000	0.603397
	14.415000	0.485003
	14.420000	0.511313
	14.425000	0.619841
	14.430000	0.606686
	14.435000	0.491581
	14.440000	0.511313
	14.445000	0.619841
	14.450000	0.596820
	14.455000	0.488292
	14.460000	0.511313
	14.465000	0.623130
	14.470000	0.603397
	14.475000	0.491581
	14.480000	0.511313
	14.485000	0.623130
	14.490000	0.603397
	14.495000	0.488292
	14.500000	0.514602
	14.505000	0.626418
	14.510000	0.606686
	14.515000	0.494869
	14.520000	0.514602
	14.525000	0.623130
	14.530000	0.603397
	14.535000	0.488292
	14.540000	0.511313
	14.545000	0.623130
	14.550000	0.603397
	14.555000	0.491581
	14.560000	0.514602
	14.565000	0.623130
	14.570000	0.603397
	14.575000	0.491581
	14.580000	0.514602
	14.585000	0.626418
	14.590000	0.603397
	14.595000	0.494869
	14.600000	0.514602
	14.605000	0.629707
	14.610000	0.603397
	14.615000	0.485003
	14.620000	0.508024
	14.625000	0.623130
	14.630000	0.600109
	14.635000	0.488292
	14.640000	0.517891
	14.645000	0.626418
	14.650000	0.600109
	14.655000	0.491581
	14.660000	0.517891
	14.665000	0.626418
	14.670000	0.603397
	14.675000	0.491581
	14.680000	0.511313
	14.685000	0.626418
	14.690000	0.603397
	14.695000	0.488292
	14.700000	0.508024
	14.705000	0.623130
	14.710000	0.596820
	14.715000	0.485003
	14.720000	0.508024
	14.725000	0.626418
	14.730000	0.596820
	14.735000	0.485003
	14.740000	0.508024
	14.745000	0.619841
	14.750000	0.596820
	14.755000	0.485003
	14.760000	0.508024
	14.765000	0.626418
	14.770000	0.596820
	14.775000	0.485003
	14.780000	0.511313
	14.785000	0.619841
	14.790000	0.596820
	14.795000	0.485003
	14.800000	0.511313
	14.805000	0.623130
	14.810000	0.596820
	14.815000	0.485003
	14.820000	0.514602
	14.825000	0.623130
	14.830000	0.596820
	14.835000	0.485003
	14.840000	0.514602
	14.845000	0.626418
	14.850000	0.596820
	14.855000	0.485003
	14.860000	0.517891
	14.865000	0.626418
	14.870000	0.603397
	14.875000	0.485003
	14.880000	0.521179
	14.885000	0.629707
	14.890000	0.600109
	14.895000	0.488292
	14.900000	0.521179
	14.905000	0.629707
	14.910000	0.603397
	14.915000	0.488292
	14.920000	0.521179
	14.925000	0.632996
	14.930000	0.606686
	14.935000	0.491581
	14.940000	0.524468
	14.945000	0.636285
	14.950000	0.603397
	14.955000	0.494869
	14.960000	0.527757
	14.965000	0.632996
	14.970000	0.603397
	14.975000	0.494869
	14.980000	0.527757
	14.985000	0.632996
	14.990000	0.603397
	14.995000	0.491581
	15.000000	0.521179
	15.005000	0.636285
	15.010000	0.603397
	15.015000	0.498158
	15.020000	0.527757
	15.025000	0.636285
	15.030000	0.600109
	15.035000	0.488292
	15.040000	0.527757
	15.045000	0.632996
	15.050000	0.603397
	15.055000	0.491581
	15.060000	0.521179
	15.065000	0.632996
	15.070000	0.600109
	15.075000	0.485003
	15.080000	0.527757
	15.085000	0.632996
	15.090000	0.596820
	15.095000	0.485003
	15.100000	0.521179
	15.105000	0.629707
	15.110000	0.600109
	15.115000	0.488292
	15.120000	0.524468
	15.125000	0.629707
	15.130000	0.593531
	15.135000	0.485003
	15.140000	0.521179
	15.145000	0.629707
	15.150000	0.593531
	15.155000	0.485003
	15.160000	0.521179
	15.165000	0.632996
	15.170000	0.590242
	15.175000	0.485003
	15.180000	0.521179
	15.185000	0.629707
	15.190000	0.590242
	15.195000	0.485003
	15.200000	0.521179
	15.205000	0.629707
	15.210000	0.596820
	15.215000	0.485003
	15.220000	0.521179
	15.225000	0.626418
	15.230000	0.593531
	15.235000	0.481715
	15.240000	0.521179
	15.245000	0.629707
	15.250000	0.590242
	15.255000	0.485003
	15.260000	0.521179
	15.265000	0.626418
	15.270000	0.586954
	15.275000	0.481715
	15.280000	0.521179
	15.285000	0.626418
	15.290000	0.590242
	15.295000	0.481715
	15.300000	0.521179
	15.305000	0.623130
	15.310000	0.590242
	15.315000	0.478426
	15.320000	0.517891
	15.325000	0.626418
	15.330000	0.590242
	15.335000	0.481715
	15.340000	0.521179
	15.345000	0.626418
	15.350000	0.586954
	15.355000	0.485003
	15.360000	0.521179
	15.365000	0.629707
	15.370000	0.590242
	15.375000	0.485003
	15.380000	0.524468
	15.385000	0.629707
	15.390000	0.590242
	15.395000	0.481715
	15.400000	0.524468
	15.405000	0.629707
	15.410000	0.590242
	15.415000	0.481715
	15.420000	0.524468
	15.425000	0.632996
	15.430000	0.590242
	15.435000	0.485003
	15.440000	0.527757
	15.445000	0.632996
	15.450000	0.590242
	15.455000	0.491581
	15.460000	0.531045
	15.465000	0.632996
	15.470000	0.596820
	15.475000	0.491581
	15.480000	0.527757
	15.485000	0.636285
	15.490000	0.596820
	15.495000	0.491581
	15.500000	0.534334
	15.505000	0.632996
	15.510000	0.593531
	15.515000	0.488292
	15.520000	0.534334
	15.525000	0.629707
	15.530000	0.593531
	15.535000	0.491581
	15.540000	0.534334
	15.545000	0.636285
	15.550000	0.590242
	15.555000	0.488292
	15.560000	0.531045
	15.565000	0.632996
	15.570000	0.593531
	15.575000	0.494869
	15.580000	0.534334
	15.585000	0.636285
	15.590000	0.600109
	15.595000	0.508024
	15.600000	0.547489
	15.605000	0.652728
	15.610000	0.613263
	15.615000	0.514602
	15.620000	0.560644
	15.625000	0.659306
	15.630000	0.619841
	15.635000	0.517891
	15.640000	0.560644
	15.645000	0.662594
	15.650000	0.613263
	15.655000	0.511313
	15.660000	0.554066
	15.665000	0.652728
	15.670000	0.609975
	15.675000	0.501447
	15.680000	0.550778
	15.685000	0.649439
	15.690000	0.603397
	15.695000	0.498158
	15.700000	0.544200
	15.705000	0.649439
	15.710000	0.596820
	15.715000	0.498158
	15.720000	0.544200
	15.725000	0.642862
	15.730000	0.596820
	15.735000	0.494869
	15.740000	0.537623
	15.745000	0.642862
	15.750000	0.593531
	15.755000	0.488292
	15.760000	0.537623
	15.765000	0.636285
	15.770000	0.590242
	15.775000	0.488292
	15.780000	0.537623
	15.785000	0.639573
	15.790000	0.590242
	15.795000	0.488292
	15.800000	0.534334
	15.805000	0.636285
	15.810000	0.586954
	15.815000	0.485003
	15.820000	0.534334
	15.825000	0.636285
	15.830000	0.586954
	15.835000	0.485003
	15.840000	0.534334
	15.845000	0.632996
	15.850000	0.583665
	15.855000	0.481715
	15.860000	0.531045
	15.865000	0.629707
	15.870000	0.580376
	15.875000	0.481715
	15.880000	0.527757
	15.885000	0.629707
	15.890000	0.583665
	15.895000	0.478426
	15.900000	0.527757
	15.905000	0.626418
	15.910000	0.577088
	15.915000	0.475137
	15.920000	0.524468
	15.925000	0.623130
	15.930000	0.573799
	15.935000	0.471848
	15.940000	0.524468
	15.945000	0.623130
	15.950000	0.570510
	15.955000	0.468560
	15.960000	0.527757
	15.965000	0.626418
	15.970000	0.573799
	15.975000	0.471848
	15.980000	0.524468
	15.985000	0.623130
	15.990000	0.577088
	15.995000	0.471848
	16.000000	0.527757
	16.005000	0.623130
	16.010000	0.570510
	16.015000	0.468560
	16.020000	0.521179
	16.025000	0.623130
	16.030000	0.567221
	16.035000	0.468560
	16.040000	0.524468
	16.045000	0.623130
	16.050000	0.567221
	16.055000	0.468560
	16.060000	0.524468
	16.065000	0.623130
	16.070000	0.563933
	16.075000	0.468560
	16.080000	0.524468
	16.085000	0.619841
	16.090000	0.563933
	16.095000	0.468560
	16.100000	0.524468
	16.105000	0.623130
	16.110000	0.567221
	16.115000	0.465271
	16.120000	0.524468
	16.125000	0.623130
	16.130000	0.567221
	16.135000	0.468560
	16.140000	0.521179
	16.145000	0.619841
	16.150000	0.563933
	16.155000	0.465271
	16.160000	0.524468
	16.165000	0.616552
	16.170000	0.567221
	16.175000	0.465271
	16.180000	0.521179
	16.185000	0.623130
	16.190000	0.563933
	16.195000	0.465271
	16.200000	0.524468
	16.205000	0.616552
	16.210000	0.560644
	16.215000	0.465271
	16.220000	0.521179
	16.225000	0.619841
	16.230000	0.563933
	16.235000	0.465271
	16.240000	0.521179
	16.245000	0.619841
	16.250000	0.560644
	16.255000	0.461982
	16.260000	0.521179
	16.265000	0.619841
	16.270000	0.560644
	16.275000	0.465271
	16.280000	0.524468
	16.285000	0.619841
	16.290000	0.557355
	16.295000	0.458694
	16.300000	0.527757
	16.305000	0.619841
	16.310000	0.563933
	16.315000	0.465271
	16.320000	0.521179
	16.325000	0.623130
	16.330000	0.557355
	16.335000	0.461982
	16.340000	0.521179
	16.345000	0.623130
	16.350000	0.560644
	16.355000	0.465271
	16.360000	0.524468
	16.365000	0.619841
	16.370000	0.560644
	16.375000	0.465271
	16.380000	0.524468
	16.385000	0.619841
	16.390000	0.557355
	16.395000	0.461982
	16.400000	0.527757
	16.405000	0.623130
	16.410000	0.560644
	16.415000	0.468560
	16.420000	0.524468
	16.425000	0.623130
	16.430000	0.560644
	16.435000	0.465271
	16.440000	0.524468
	16.445000	0.623130
	16.450000	0.560644
	16.455000	0.465271
	16.460000	0.527757
	16.465000	0.623130
	16.470000	0.563933
	16.475000	0.468560
	16.480000	0.531045
	16.485000	0.626418
	16.490000	0.560644
	16.495000	0.465271
	16.500000	0.534334
	16.505000	0.619841
	16.510000	0.560644
	16.515000	0.468560
	16.520000	0.531045
	16.525000	0.623130
	16.530000	0.557355
	16.535000	0.468560
	16.540000	0.531045
	16.545000	0.626418
	16.550000	0.563933
	16.555000	0.465271
	16.560000	0.531045
	16.565000	0.623130
	16.570000	0.557355
	16.575000	0.465271
	16.580000	0.531045
	16.585000	0.626418
	16.590000	0.554066
	16.595000	0.465271
	16.600000	0.527757
	16.605000	0.623130
	16.610000	0.554066
	16.615000	0.468560
	16.620000	0.534334
	16.625000	0.629707
	16.630000	0.557355
	16.635000	0.465271
	16.640000	0.527757
	16.645000	0.623130
	16.650000	0.557355
	16.655000	0.461982
	16.660000	0.527757
	16.665000	0.623130
	16.670000	0.557355
	16.675000	0.461982
	16.680000	0.531045
	16.685000	0.616552
	16.690000	0.554066
	16.695000	0.465271
	16.700000	0.534334
	16.705000	0.626418
	16.710000	0.554066
	16.715000	0.461982
	16.720000	0.531045
	16.725000	0.623130
	16.730000	0.554066
	16.735000	0.465271
	16.740000	0.534334
	16.745000	0.626418
	16.750000	0.557355
	16.755000	0.461982
	16.760000	0.534334
	16.765000	0.623130
	16.770000	0.550778
	16.775000	0.461982
	16.780000	0.534334
	16.785000	0.623130
	16.790000	0.557355
	16.795000	0.465271
	16.800000	0.534334
	16.805000	0.626418
	16.810000	0.554066
	16.815000	0.465271
	16.820000	0.534334
	16.825000	0.623130
	16.830000	0.554066
	16.835000	0.465271
	16.840000	0.537623
	16.845000	0.623130
	16.850000	0.557355
	16.855000	0.465271
	16.860000	0.537623
	16.865000	0.626418
	16.870000	0.554066
	16.875000	0.461982
	16.880000	0.537623
	16.885000	0.626418
	16.890000	0.554066
	16.895000	0.465271
	16.900000	0.537623
	16.905000	0.626418
	16.910000	0.554066
	16.915000	0.461982
	16.920000	0.534334
	16.925000	0.623130
	16.930000	0.554066
	16.935000	0.461982
	16.940000	0.537623
	16.945000	0.623130
	16.950000	0.550778
	16.955000	0.458694
	16.960000	0.531045
	16.965000	0.619841
	16.970000	0.550778
	16.975000	0.461982
	16.980000	0.537623
	16.985000	0.623130
	16.990000	0.550778
	16.995000	0.458694
	17.000000	0.531045
	17.005000	0.616552
	17.010000	0.550778
	17.015000	0.461982
	17.020000	0.537623
	17.025000	0.626418
	17.030000	0.550778
	17.035000	0.458694
	17.040000	0.531045
	17.045000	0.616552
	17.050000	0.554066
	17.055000	0.461982
	17.060000	0.534334
	17.065000	0.619841
	17.070000	0.547489
	17.075000	0.465271
	17.080000	0.537623
	17.085000	0.619841
	17.090000	0.547489
	17.095000	0.465271
	17.100000	0.537623
	17.105000	0.619841
	17.110000	0.550778
	17.115000	0.465271
	17.120000	0.534334
	17.125000	0.619841
	17.130000	0.554066
	17.135000	0.465271
	17.140000	0.540912
	17.145000	0.619841
	17.150000	0.547489
	17.155000	0.468560
	17.160000	0.540912
	17.165000	0.623130
	17.170000	0.550778
	17.175000	0.465271
	17.180000	0.544200
	17.185000	0.623130
	17.190000	0.550778
	17.195000	0.471848
	17.200000	0.540912
	17.205000	0.623130
	17.210000	0.550778
	17.215000	0.471848
	17.220000	0.547489
	17.225000	0.626418
	17.230000	0.550778
	17.235000	0.471848
	17.240000	0.537623
	17.245000	0.626418
	17.250000	0.550778
	17.255000	0.471848
	17.260000	0.544200
	17.265000	0.626418
	17.270000	0.554066
	17.275000	0.471848
	17.280000	0.550778
	17.285000	0.632996
	17.290000	0.560644
	17.295000	0.485003
	17.300000	0.560644
	17.305000	0.649439
	17.310000	0.573799
	17.315000	0.491581
	17.320000	0.567221
	17.325000	0.652728
	17.330000	0.573799
	17.335000	0.498158
	17.340000	0.573799
	17.345000	0.646151
	17.350000	0.573799
	17.355000	0.494869
	17.360000	0.563933
	17.365000	0.642862
	17.370000	0.567221
	17.375000	0.485003
	17.380000	0.560644
	17.385000	0.639573
	17.390000	0.560644
	17.395000	0.478426
	17.400000	0.557355
	17.405000	0.636285
	17.410000	0.554066
	17.415000	0.481715
	17.420000	0.554066
	17.425000	0.632996
	17.430000	0.554066
	17.435000	0.478426
	17.440000	0.554066
	17.445000	0.632996
	17.450000	0.554066
	17.455000	0.471848
	17.460000	0.547489
	17.465000	0.629707
	17.470000	0.547489
	17.475000	0.468560
	17.480000	0.547489
	17.485000	0.626418
	17.490000	0.547489
	17.495000	0.471848
	17.500000	0.544200
	17.505000	0.626418
	17.510000	0.547489
	17.515000	0.471848
	17.520000	0.544200
	17.525000	0.623130
	17.530000	0.544200
	17.535000	0.461982
	17.540000	0.544200
	17.545000	0.623130
	17.550000	0.544200
	17.555000	0.465271
	17.560000	0.544200
	17.565000	0.619841
	17.570000	0.540912
	17.575000	0.458694
	17.580000	0.544200
	17.585000	0.616552
	17.590000	0.534334
	17.595000	0.458694
	17.600000	0.540912
	17.605000	0.613263
	17.610000	0.537623
	17.615000	0.455405
	17.620000	0.534334
	17.625000	0.616552
	17.630000	0.534334
	17.635000	0.455405
	17.640000	0.534334
	17.645000	0.616552
	17.650000	0.531045
	17.655000	0.455405
	17.660000	0.537623
	17.665000	0.616552
	17.670000	0.531045
	17.675000	0.452116
	17.680000	0.537623
	17.685000	0.616552
	17.690000	0.531045
	17.695000	0.452116
	17.700000	0.540912
	17.705000	0.613263
	17.710000	0.534334
	17.715000	0.455405
	17.720000	0.540912
	17.725000	0.616552
	17.730000	0.531045
	17.735000	0.455405
	17.740000	0.540912
	17.745000	0.616552
	17.750000	0.531045
	17.755000	0.458694
	17.760000	0.540912
	17.765000	0.616552
	17.770000	0.531045
	17.775000	0.455405
	17.780000	0.540912
	17.785000	0.613263
	17.790000	0.531045
	17.795000	0.455405
	17.800000	0.537623
	17.805000	0.609975
	17.810000	0.527757
	17.815000	0.452116
	17.820000	0.540912
	17.825000	0.613263
	17.830000	0.527757
	17.835000	0.452116
	17.840000	0.537623
	17.845000	0.613263
	17.850000	0.524468
	17.855000	0.448827
	17.860000	0.534334
	17.865000	0.609975
	17.870000	0.524468
	17.875000	0.452116
	17.880000	0.537623
	17.885000	0.609975
	17.890000	0.524468
	17.895000	0.455405
	17.900000	0.544200
	17.905000	0.613263
	17.910000	0.524468
	17.915000	0.455405
	17.920000	0.537623
	17.925000	0.609975
	17.930000	0.527757
	17.935000	0.455405
	17.940000	0.537623
	17.945000	0.613263
	17.950000	0.524468
	17.955000	0.452116
	17.960000	0.540912
	17.965000	0.616552
	17.970000	0.524468
	17.975000	0.455405
	17.980000	0.540912
	17.985000	0.613263
	17.990000	0.521179
	17.995000	0.452116
	18.000000	0.544200
	18.005000	0.609975
	18.010000	0.524468
	18.015000	0.452116
	18.020000	0.540912
	18.025000	0.609975
	18.030000	0.524468
	18.035000	0.455405
	18.040000	0.547489
	18.045000	0.613263
	18.050000	0.524468
	18.055000	0.455405
	18.060000	0.540912
	18.065000	0.613263
	18.070000	0.521179
	18.075000	0.448827
	18.080000	0.544200
	18.085000	0.609975
	18.090000	0.521179
	18.095000	0.452116
	18.100000	0.544200
	18.105000	0.616552
	18.110000	0.527757
	18.115000	0.448827
	18.120000	0.544200
	18.125000	0.616552
	18.130000	0.521179
	18.135000	0.455405
	18.140000	0.540912
	18.145000	0.613263
	18.150000	0.521179
	18.155000	0.452116
	18.160000	0.547489
	18.165000	0.616552
	18.170000	0.521179
	18.175000	0.452116
	18.180000	0.540912
	18.185000	0.616552
	18.190000	0.517891
	18.195000	0.452116
	18.200000	0.544200
	18.205000	0.609975
	18.210000	0.521179
	18.215000	0.455405
	18.220000	0.544200
	18.225000	0.609975
	18.230000	0.521179
	18.235000	0.455405
	18.240000	0.540912
	18.245000	0.609975
	18.250000	0.521179
	18.255000	0.452116
	18.260000	0.544200
	18.265000	0.609975
	18.270000	0.517891
	18.275000	0.455405
	18.280000	0.547489
	18.285000	0.613263
	18.290000	0.517891
	18.295000	0.448827
	18.300000	0.550778
	18.305000	0.609975
	18.310000	0.524468
	18.315000	0.452116
	18.320000	0.547489
	18.325000	0.613263
	18.330000	0.521179
	18.335000	0.458694
	18.340000	0.544200
	18.345000	0.616552
	18.350000	0.521179
	18.355000	0.455405
	18.360000	0.550778
	18.365000	0.613263
	18.370000	0.521179
	18.375000	0.452116
	18.380000	0.550778
	18.385000	0.616552
	18.390000	0.521179
	18.395000	0.455405
	18.400000	0.550778
	18.405000	0.613263
	18.410000	0.521179
	18.415000	0.458694
	18.420000	0.554066
	18.425000	0.616552
	18.430000	0.517891
	18.435000	0.455405
	18.440000	0.554066
	18.445000	0.616552
	18.450000	0.524468
	18.455000	0.458694
	18.460000	0.554066
	18.465000	0.619841
	18.470000	0.521179
	18.475000	0.458694
	18.480000	0.554066
	18.485000	0.616552
	18.490000	0.521179
	18.495000	0.458694
	18.500000	0.550778
	18.505000	0.613263
	18.510000	0.521179
	18.515000	0.461982
	18.520000	0.557355
	18.525000	0.613263
	18.530000	0.524468
	18.535000	0.461982
	18.540000	0.550778
	18.545000	0.613263
	18.550000	0.517891
	18.555000	0.458694
	18.560000	0.557355
	18.565000	0.616552
	18.570000	0.517891
	18.575000	0.458694
	18.580000	0.554066
	18.585000	0.616552
	18.590000	0.524468
	18.595000	0.461982
	18.600000	0.557355
	18.605000	0.613263
	18.610000	0.521179
	18.615000	0.458694
	18.620000	0.550778
	18.625000	0.616552
	18.630000	0.521179
	18.635000	0.461982
	18.640000	0.550778
	18.645000	0.613263
	18.650000	0.521179
	18.655000	0.458694
	18.660000	0.554066
	18.665000	0.616552
	18.670000	0.517891
	18.675000	0.455405
	18.680000	0.550778
	18.685000	0.616552
	18.690000	0.517891
	18.695000	0.455405
	18.700000	0.554066
	18.705000	0.616552
	18.710000	0.517891
	18.715000	0.461982
	18.720000	0.554066
	18.725000	0.613263
	18.730000	0.511313
	18.735000	0.458694
	18.740000	0.550778
	18.745000	0.613263
	18.750000	0.514602
	18.755000	0.455405
	18.760000	0.554066
	18.765000	0.609975
	18.770000	0.514602
	18.775000	0.455405
	18.780000	0.547489
	18.785000	0.603397
	18.790000	0.508024
	18.795000	0.458694
	18.800000	0.544200
	18.805000	0.603397
	18.810000	0.504736
	18.815000	0.452116
	18.820000	0.544200
	18.825000	0.596820
	18.830000	0.504736
	18.835000	0.445539
	18.840000	0.544200
	18.845000	0.596820
	18.850000	0.501447
	18.855000	0.445539
	18.860000	0.544200
	18.865000	0.600109
	18.870000	0.501447
	18.875000	0.445539
	18.880000	0.547489
	18.885000	0.596820
	18.890000	0.504736
	18.895000	0.445539
	18.900000	0.547489
	18.905000	0.603397
	18.910000	0.501447
	18.915000	0.448827
	18.920000	0.550778
	18.925000	0.600109
	18.930000	0.504736
	18.935000	0.452116
	18.940000	0.544200
	18.945000	0.603397
	18.950000	0.504736
	18.955000	0.455405
	18.960000	0.547489
	18.965000	0.603397
	18.970000	0.508024
	18.975000	0.458694
	18.980000	0.554066
	18.985000	0.603397
	18.990000	0.504736
	18.995000	0.458694
	19.000000	0.554066
	19.005000	0.606686
	19.010000	0.508024
	19.015000	0.458694
	19.020000	0.554066
	19.025000	0.603397
	19.030000	0.508024
	19.035000	0.455405
	19.040000	0.550778
	19.045000	0.603397
	19.050000	0.511313
	19.055000	0.458694
	19.060000	0.554066
	19.065000	0.609975
	19.070000	0.514602
	19.075000	0.468560
	19.080000	0.567221
	19.085000	0.626418
	19.090000	0.531045
	19.095000	0.485003
	19.100000	0.583665
	19.105000	0.629707
	19.110000	0.537623
	19.115000	0.488292
	19.120000	0.590242
	19.125000	0.632996
	19.130000	0.531045
	19.135000	0.485003
	19.140000	0.577088
	19.145000	0.626418
	19.150000	0.527757
	19.155000	0.478426
	19.160000	0.580376
	19.165000	0.626418
	19.170000	0.524468
	19.175000	0.478426
	19.180000	0.577088
	19.185000	0.619841
	19.190000	0.517891
	19.195000	0.471848
	19.200000	0.570510
	19.205000	0.619841
	19.210000	0.511313
	19.215000	0.471848
	19.220000	0.567221
	19.225000	0.613263
	19.230000	0.511313
	19.235000	0.468560
	19.240000	0.560644
	19.245000	0.609975
	19.250000	0.511313
	19.255000	0.461982
	19.260000	0.563933
	19.265000	0.609975
	19.270000	0.508024
	19.275000	0.461982
	19.280000	0.560644
	19.285000	0.606686
	19.290000	0.508024
	19.295000	0.461982
	19.300000	0.560644
	19.305000	0.609975
	19.310000	0.504736
	19.315000	0.461982
	19.320000	0.560644
	19.325000	0.606686
	19.330000	0.504736
	19.335000	0.461982
	19.340000	0.560644
	19.345000	0.606686
	19.350000	0.504736
	19.355000	0.452116
	19.360000	0.560644
	19.365000	0.603397
	19.370000	0.504736
	19.375000	0.452116
	19.380000	0.554066
	19.385000	0.600109
	19.390000	0.498158
	19.395000	0.452116
	19.400000	0.554066
	19.405000	0.596820
	19.410000	0.494869
	19.415000	0.455405
	19.420000	0.554066
	19.425000	0.600109
	19.430000	0.498158
	19.435000	0.452116
	19.440000	0.554066
	19.445000	0.600109
	19.450000	0.491581
	19.455000	0.455405
	19.460000	0.560644
	19.465000	0.600109
	19.470000	0.491581
	19.475000	0.448827
	19.480000	0.554066
	19.485000	0.596820
	19.490000	0.494869
	19.495000	0.452116
	19.500000	0.560644
	19.505000	0.596820
	19.510000	0.491581
	19.515000	0.448827
	19.520000	0.550778
	19.525000	0.593531
	19.530000	0.491581
	19.535000	0.448827
	19.540000	0.554066
	19.545000	0.596820
	19.550000	0.491581
	19.555000	0.445539
	19.560000	0.550778
	19.565000	0.596820
	19.570000	0.488292
	19.575000	0.448827
	19.580000	0.557355
	19.585000	0.593531
	19.590000	0.488292
	19.595000	0.452116
	19.600000	0.554066
	19.605000	0.590242
	19.610000	0.494869
	19.615000	0.448827
	19.620000	0.550778
	19.625000	0.590242
	19.630000	0.485003
	19.635000	0.448827
	19.640000	0.554066
	19.645000	0.590242
	19.650000	0.485003
	19.655000	0.448827
	19.660000	0.550778
	19.665000	0.593531
	19.670000	0.485003
	19.675000	0.448827
	19.680000	0.550778
	19.685000	0.593531
	19.690000	0.485003
	19.695000	0.442250
	19.700000	0.554066
	19.705000	0.593531
	19.710000	0.488292
	19.715000	0.448827
	19.720000	0.554066
	19.725000	0.590242
	19.730000	0.485003
	19.735000	0.452116
	19.740000	0.557355
	19.745000	0.590242
	19.750000	0.485003
	19.755000	0.448827
	19.760000	0.554066
	19.765000	0.590242
	19.770000	0.485003
	19.775000	0.445539
	19.780000	0.554066
	19.785000	0.590242
	19.790000	0.481715
	19.795000	0.448827
	19.800000	0.557355
	19.805000	0.590242
	19.810000	0.485003
	19.815000	0.448827
	19.820000	0.554066
	19.825000	0.590242
	19.830000	0.481715
	19.835000	0.445539
	19.840000	0.554066
	19.845000	0.586954
	19.850000	0.485003
	19.855000	0.448827
	19.860000	0.557355
	19.865000	0.586954
	19.870000	0.481715
	19.875000	0.448827
	19.880000	0.554066
	19.885000	0.590242
	19.890000	0.475137
	19.895000	0.448827
	19.900000	0.557355
	19.905000	0.586954
	19.910000	0.481715
	19.915000	0.445539
	19.920000	0.554066
	19.925000	0.590242
	19.930000	0.481715
	19.935000	0.445539
	19.940000	0.554066
	19.945000	0.590242
	19.950000	0.478426
	19.955000	0.445539
	19.960000	0.557355
	19.965000	0.586954
	19.970000	0.475137
	19.975000	0.445539
	19.980000	0.554066
	19.985000	0.583665
	19.990000	0.481715
	19.995000	0.445539
	20.000000	0.554066
	20.005000	0.586954
	20.010000	0.481715
	20.015000	0.448827
	20.020000	0.554066
	20.025000	0.586954
	20.030000	0.475137
	20.035000	0.442250
	20.040000	0.557355
	20.045000	0.586954
	20.050000	0.475137
	20.055000	0.448827
	20.060000	0.557355
	20.065000	0.583665
	20.070000	0.478426
	20.075000	0.445539
	20.080000	0.550778
	20.085000	0.583665
	20.090000	0.475137
	20.095000	0.445539
	20.100000	0.557355
	20.105000	0.590242
	20.110000	0.471848
	20.115000	0.442250
	20.120000	0.554066
	20.125000	0.586954
	20.130000	0.475137
	20.135000	0.448827
	20.140000	0.560644
	20.145000	0.583665
	20.150000	0.475137
	20.155000	0.448827
	20.160000	0.554066
	20.165000	0.586954
	20.170000	0.471848
	20.175000	0.448827
	20.180000	0.560644
	20.185000	0.586954
	20.190000	0.471848
	20.195000	0.445539
	20.200000	0.554066
	20.205000	0.586954
	20.210000	0.471848
	20.215000	0.448827
	20.220000	0.557355
	20.225000	0.583665
	20.230000	0.468560
	20.235000	0.448827
	20.240000	0.557355
	20.245000	0.583665
	20.250000	0.478426
	20.255000	0.452116
	20.260000	0.557355
	20.265000	0.583665
	20.270000	0.465271
	20.275000	0.448827
	20.280000	0.557355
	20.285000	0.586954
	20.290000	0.471848
	20.295000	0.452116
	20.300000	0.557355
	20.305000	0.580376
	20.310000	0.468560
	20.315000	0.445539
	20.320000	0.557355
	20.325000	0.580376
	20.330000	0.471848
	20.335000	0.448827
	20.340000	0.563933
	20.345000	0.586954
	20.350000	0.471848
	20.355000	0.448827
	20.360000	0.557355
	20.365000	0.583665
	20.370000	0.468560
	20.375000	0.452116
	20.380000	0.557355
	20.385000	0.583665
	20.390000	0.468560
	20.395000	0.452116
	20.400000	0.557355
	20.405000	0.583665
	20.410000	0.465271
	20.415000	0.448827
	20.420000	0.560644
	20.425000	0.580376
	20.430000	0.471848
	20.435000	0.448827
	20.440000	0.560644
	20.445000	0.583665
	20.450000	0.471848
	20.455000	0.448827
	20.460000	0.563933
	20.465000	0.583665
	20.470000	0.468560
	20.475000	0.452116
	20.480000	0.560644
	20.485000	0.580376
	20.490000	0.465271
	20.495000	0.448827
	20.500000	0.563933
	20.505000	0.577088
	20.510000	0.465271
	20.515000	0.448827
	20.520000	0.563933
	20.525000	0.573799
	20.530000	0.465271
	20.535000	0.448827
	20.540000	0.560644
	20.545000	0.580376
	20.550000	0.465271
	20.555000	0.448827
	20.560000	0.557355
	20.565000	0.573799
	20.570000	0.458694
	20.575000	0.445539
	20.580000	0.557355
	20.585000	0.573799
	20.590000	0.461982
	20.595000	0.448827
	20.600000	0.557355
	20.605000	0.573799
	20.610000	0.458694
	20.615000	0.442250
	20.620000	0.554066
	20.625000	0.567221
	20.630000	0.455405
	20.635000	0.442250
	20.640000	0.550778
	20.645000	0.567221
	20.650000	0.455405
	20.655000	0.438961
	20.660000	0.554066
	20.665000	0.567221
	20.670000	0.452116
	20.675000	0.442250
	20.680000	0.554066
	20.685000	0.570510
	20.690000	0.455405
	20.695000	0.445539
	20.700000	0.557355
	20.705000	0.567221
	20.710000	0.458694
	20.715000	0.442250
	20.720000	0.560644
	20.725000	0.570510
	20.730000	0.461982
	20.735000	0.445539
	20.740000	0.554066
	20.745000	0.567221
	20.750000	0.455405
	20.755000	0.445539
	20.760000	0.557355
	20.765000	0.570510
	20.770000	0.458694
	20.775000	0.445539
	20.780000	0.563933
	20.785000	0.570510
	20.790000	0.458694
	20.795000	0.452116
	20.800000	0.560644
	20.805000	0.573799
	20.810000	0.461982
	20.815000	0.452116
	20.820000	0.557355
	20.825000	0.570510
	20.830000	0.461982
	20.835000	0.452116
	20.840000	0.560644
	20.845000	0.570510
	20.850000	0.461982
	20.855000	0.448827
	20.860000	0.560644
	20.865000	0.573799
	20.870000	0.465271
	20.875000	0.455405
	20.880000	0.563933
	20.885000	0.583665
	20.890000	0.475137
	20.895000	0.468560
	20.900000	0.583665
	20.905000	0.596820
	20.910000	0.485003
	20.915000	0.478426
	20.920000	0.590242
	20.925000	0.596820
	20.930000	0.485003
	20.935000	0.478426
	20.940000	0.586954
	20.945000	0.600109
	20.950000	0.488292
	20.955000	0.481715
	20.960000	0.583665
	20.965000	0.593531
	20.970000	0.485003
	20.975000	0.475137
	20.980000	0.583665
	20.985000	0.590242
	20.990000	0.481715
	20.995000	0.475137
	21.000000	0.583665
	21.005000	0.583665
	21.010000	0.475137
	21.015000	0.471848
	21.020000	0.577088
	21.025000	0.583665
	21.030000	0.475137
	21.035000	0.465271
	21.040000	0.573799
	21.045000	0.583665
	21.050000	0.468560
	21.055000	0.465271
	21.060000	0.573799
	21.065000	0.577088
	21.070000	0.465271
	21.075000	0.461982
	21.080000	0.570510
	21.085000	0.573799
	21.090000	0.468560
	21.095000	0.461982
	21.100000	0.573799
	21.105000	0.573799
	21.110000	0.465271
	21.115000	0.458694
	21.120000	0.570510
	21.125000	0.573799
	21.130000	0.458694
	21.135000	0.461982
	21.140000	0.567221
	21.145000	0.573799
	21.150000	0.458694
	21.155000	0.455405
	21.160000	0.570510
	21.165000	0.567221
	21.170000	0.461982
	21.175000	0.452116
	21.180000	0.560644
	21.185000	0.567221
	21.190000	0.452116
	21.195000	0.452116
	21.200000	0.567221
	21.205000	0.567221
	21.210000	0.448827
	21.215000	0.455405
	21.220000	0.563933
	21.225000	0.563933
	21.230000	0.448827
	21.235000	0.452116
	21.240000	0.560644
	21.245000	0.560644
	21.250000	0.448827
	21.255000	0.452116
	21.260000	0.563933
	21.265000	0.560644
	21.270000	0.448827
	21.275000	0.452116
	21.280000	0.560644
	21.285000	0.560644
	21.290000	0.452116
	21.295000	0.445539
	21.300000	0.560644
	21.305000	0.560644
	21.310000	0.445539
	21.315000	0.448827
	21.320000	0.557355
	21.325000	0.557355
	21.330000	0.448827
	21.335000	0.448827
	21.340000	0.557355
	21.345000	0.560644
	21.350000	0.445539
	21.355000	0.452116
	21.360000	0.560644
	21.365000	0.560644
	21.370000	0.448827
	21.375000	0.448827
	21.380000	0.557355
	21.385000	0.557355
	21.390000	0.448827
	21.395000	0.445539
	21.400000	0.560644
	21.405000	0.557355
	21.410000	0.445539
	21.415000	0.448827
	21.420000	0.563933
	21.425000	0.557355
	21.430000	0.445539
	21.435000	0.448827
	21.440000	0.560644
	21.445000	0.554066
	21.450000	0.442250
	21.455000	0.448827
	21.460000	0.560644
	21.465000	0.554066
	21.470000	0.438961
	21.475000	0.445539
	21.480000	0.563933
	21.485000	0.557355
	21.490000	0.442250
	21.495000	0.448827
	21.500000	0.560644
	21.505000	0.554066
	21.510000	0.438961
	21.515000	0.448827
	21.520000	0.563933
	21.525000	0.550778
	21.530000	0.438961
	21.535000	0.448827
	21.540000	0.560644
	21.545000	0.554066
	21.550000	0.442250
	21.555000	0.452116
	21.560000	0.560644
	21.565000	0.557355
	21.570000	0.438961
	21.575000	0.448827
	21.580000	0.560644
	21.585000	0.554066
	21.590000	0.445539
	21.595000	0.452116
	21.600000	0.560644
	21.605000	0.550778
	21.610000	0.438961
	21.615000	0.452116
	21.620000	0.557355
	21.625000	0.547489
	21.630000	0.442250
	21.635000	0.448827
	21.640000	0.560644
	21.645000	0.554066
	21.650000	0.442250
	21.655000	0.452116
	21.660000	0.560644
	21.665000	0.550778
	21.670000	0.435672
	21.675000	0.448827
	21.680000	0.563933
	21.685000	0.550778
	21.690000	0.438961
	21.695000	0.448827
	21.700000	0.560644
	21.705000	0.550778
	21.710000	0.435672
	21.715000	0.448827
	21.720000	0.560644
	21.725000	0.550778
	21.730000	0.438961
	21.735000	0.448827
	21.740000	0.560644
	21.745000	0.550778
	21.750000	0.435672
	21.755000	0.448827
	21.760000	0.563933
	21.765000	0.550778
	21.770000	0.438961
	21.775000	0.448827
	21.780000	0.560644
	21.785000	0.547489
	21.790000	0.429095
	21.795000	0.452116
	21.800000	0.560644
	21.805000	0.550778
	21.810000	0.435672
	21.815000	0.452116
	21.820000	0.563933
	21.825000	0.550778
	21.830000	0.438961
	21.835000	0.455405
	21.840000	0.563933
	21.845000	0.550778
	21.850000	0.435672
	21.855000	0.452116
	21.860000	0.560644
	21.865000	0.550778
	21.870000	0.432384
	21.875000	0.448827
	21.880000	0.563933
	21.885000	0.547489
	21.890000	0.438961
	21.895000	0.452116
	21.900000	0.563933
	21.905000	0.547489
	21.910000	0.438961
	21.915000	0.452116
	21.920000	0.567221
	21.925000	0.544200
	21.930000	0.435672
	21.935000	0.455405
	21.940000	0.563933
	21.945000	0.544200
	21.950000	0.432384
	21.955000	0.452116
	21.960000	0.563933
	21.965000	0.550778
	21.970000	0.432384
	21.975000	0.452116
	21.980000	0.560644
	21.985000	0.547489
	21.990000	0.435672
	21.995000	0.455405
	22.000000	0.563933
	22.005000	0.540912
	22.010000	0.435672
	22.015000	0.455405
	22.020000	0.567221
	22.025000	0.544200
	22.030000	0.435672
	22.035000	0.452116
	22.040000	0.563933
	22.045000	0.544200
	22.050000	0.435672
	22.055000	0.455405
	22.060000	0.563933
	22.065000	0.547489
	22.070000	0.435672
	22.075000	0.455405
	22.080000	0.563933
	22.085000	0.544200
	22.090000	0.432384
	22.095000	0.458694
	22.100000	0.567221
	22.105000	0.550778
	22.110000	0.435672
	22.115000	0.452116
	22.120000	0.567221
	22.125000	0.544200
	22.130000	0.432384
	22.135000	0.458694
	22.140000	0.563933
	22.145000	0.540912
	22.150000	0.432384
	22.155000	0.455405
	22.160000	0.563933
	22.165000	0.544200
	22.170000	0.432384
	22.175000	0.452116
	22.180000	0.563933
	22.185000	0.540912
	22.190000	0.432384
	22.195000	0.455405
	22.200000	0.567221
	22.205000	0.544200
	22.210000	0.435672
	22.215000	0.455405
	22.220000	0.560644
	22.225000	0.544200
	22.230000	0.429095
	22.235000	0.452116
	22.240000	0.567221
	22.245000	0.540912
	22.250000	0.429095
	22.255000	0.455405
	22.260000	0.563933
	22.265000	0.537623
	22.270000	0.432384
	22.275000	0.455405
	22.280000	0.563933
	22.285000	0.544200
	22.290000	0.425806
	22.295000	0.455405
	22.300000	0.563933
	22.305000	0.537623
	22.310000	0.429095
	22.315000	0.458694
	22.320000	0.567221
	22.325000	0.537623
	22.330000	0.425806
	22.335000	0.455405
	22.340000	0.563933
	22.345000	0.540912
	22.350000	0.429095
	22.355000	0.458694
	22.360000	0.563933
	22.365000	0.537623
	22.370000	0.425806
	22.375000	0.455405
	22.380000	0.567221
	22.385000	0.537623
	22.390000	0.425806
	22.395000	0.455405
	22.400000	0.567221
	22.405000	0.537623
	22.410000	0.429095
	22.415000	0.455405
	22.420000	0.560644
	22.425000	0.531045
	22.430000	0.425806
	22.435000	0.452116
	22.440000	0.563933
	22.445000	0.537623
	22.450000	0.422518
	22.455000	0.452116
	22.460000	0.557355
	22.465000	0.534334
	22.470000	0.422518
	22.475000	0.448827
	22.480000	0.554066
	22.485000	0.531045
	22.490000	0.415940
	22.495000	0.452116
	22.500000	0.560644
	22.505000	0.534334
	22.510000	0.422518
	22.515000	0.452116
	22.520000	0.554066
	22.525000	0.531045
	22.530000	0.419229
	22.535000	0.445539
	22.540000	0.557355
	22.545000	0.531045
	22.550000	0.425806
	22.555000	0.452116
	22.560000	0.560644
	22.565000	0.531045
	22.570000	0.422518
	22.575000	0.455405
	22.580000	0.563933
	22.585000	0.527757
	22.590000	0.422518
	22.595000	0.455405
	22.600000	0.560644
	22.605000	0.531045
	22.610000	0.429095
	22.615000	0.458694
	22.620000	0.563933
	22.625000	0.534334
	22.630000	0.425806
	22.635000	0.458694
	22.640000	0.563933
	22.645000	0.537623
	22.650000	0.425806
	22.655000	0.461982
	22.660000	0.567221
	22.665000	0.534334
	22.670000	0.425806
	22.675000	0.458694
	22.680000	0.563933
	22.685000	0.534334
	22.690000	0.432384
	22.695000	0.458694
	22.700000	0.563933
	22.705000	0.534334
	22.710000	0.432384
	22.715000	0.465271
	22.720000	0.567221
	22.725000	0.540912
	22.730000	0.442250
	22.735000	0.475137
	22.740000	0.583665
	22.745000	0.554066
	22.750000	0.452116
	22.755000	0.488292
	22.760000	0.593531
	22.765000	0.560644
	22.770000	0.452116
	22.775000	0.488292
	22.780000	0.590242
	22.785000	0.554066
	22.790000	0.445539
	22.795000	0.488292
	22.800000	0.583665
	22.805000	0.554066
	22.810000	0.448827
	22.815000	0.481715
	22.820000	0.580376
	22.825000	0.550778
	22.830000	0.442250
	22.835000	0.478426
	22.840000	0.580376
	22.845000	0.547489
	22.850000	0.442250
	22.855000	0.471848
	22.860000	0.583665
	22.865000	0.540912
	22.870000	0.435672
	22.875000	0.475137
	22.880000	0.577088
	22.885000	0.544200
	22.890000	0.435672
	22.895000	0.471848
	22.900000	0.577088
	22.905000	0.534334
	22.910000	0.432384
	22.915000	0.468560
	22.920000	0.577088
	22.925000	0.540912
	22.930000	0.432384
	22.935000	0.468560
	22.940000	0.570510
	22.945000	0.544200
	22.950000	0.432384
	22.955000	0.471848
	22.960000	0.570510
	22.965000	0.534334
	22.970000	0.429095
	22.975000	0.468560
	22.980000	0.570510
	22.985000	0.527757
	22.990000	0.425806
	22.995000	0.465271
	23.000000	0.570510
	23.005000	0.531045
	23.010000	0.422518
	23.015000	0.465271
	23.020000	0.567221
	23.025000	0.531045
	23.030000	0.425806
	23.035000	0.465271
	23.040000	0.563933
	23.045000	0.524468
	23.050000	0.422518
	23.055000	0.461982
	23.060000	0.557355
	23.065000	0.524468
	23.070000	0.415940
	23.075000	0.461982
	23.080000	0.563933
	23.085000	0.524468
	23.090000	0.419229
	23.095000	0.458694
	23.100000	0.563933
	23.105000	0.524468
	23.110000	0.419229
	23.115000	0.458694
	23.120000	0.563933
	23.125000	0.521179
	23.130000	0.415940
	23.135000	0.461982
	23.140000	0.563933
	23.145000	0.524468
	23.150000	0.422518
	23.155000	0.458694
	23.160000	0.563933
	23.165000	0.524468
	23.170000	0.419229
	23.175000	0.461982
	23.180000	0.563933
	23.185000	0.524468
	23.190000	0.412651
	23.195000	0.455405
	23.200000	0.560644
	23.205000	0.521179
	23.210000	0.415940
	23.215000	0.458694
	23.220000	0.563933
	23.225000	0.521179
	23.230000	0.419229
	23.235000	0.461982
	23.240000	0.563933
	23.245000	0.521179
	23.250000	0.415940
	23.255000	0.461982
	23.260000	0.557355
	23.265000	0.517891
	23.270000	0.415940
	23.275000	0.455405
	23.280000	0.560644
	23.285000	0.514602
	23.290000	0.412651
	23.295000	0.455405
	23.300000	0.554066
	23.305000	0.517891
	23.310000	0.415940
	23.315000	0.458694
	23.320000	0.557355
	23.325000	0.511313
	23.330000	0.412651
	23.335000	0.455405
	23.340000	0.560644
	23.345000	0.514602
	23.350000	0.415940
	23.355000	0.455405
	23.360000	0.560644
	23.365000	0.514602
	23.370000	0.412651
	23.375000	0.455405
	23.380000	0.557355
	23.385000	0.514602
	23.390000	0.409363
	23.395000	0.458694
	23.400000	0.563933
	23.405000	0.511313
	23.410000	0.412651
	23.415000	0.455405
	23.420000	0.557355
	23.425000	0.514602
	23.430000	0.409363
	23.435000	0.458694
	23.440000	0.557355
	23.445000	0.511313
	23.450000	0.409363
	23.455000	0.458694
	23.460000	0.557355
	23.465000	0.511313
	23.470000	0.409363
	23.475000	0.458694
	23.480000	0.563933
	23.485000	0.511313
	23.490000	0.409363
	23.495000	0.461982
	23.500000	0.560644
	23.505000	0.511313
	23.510000	0.409363
	23.515000	0.458694
	23.520000	0.557355
	23.525000	0.508024
	23.530000	0.409363
	23.535000	0.458694
	23.540000	0.560644
	23.545000	0.511313
	23.550000	0.406074
	23.555000	0.458694
	23.560000	0.560644
	23.565000	0.511313
	23.570000	0.412651
	23.575000	0.458694
	23.580000	0.557355
	23.585000	0.511313
	23.590000	0.409363
	23.595000	0.458694
	23.600000	0.560644
	23.605000	0.508024
	23.610000	0.409363
	23.615000	0.458694
	23.620000	0.557355
	23.625000	0.504736
	23.630000	0.406074
	23.635000	0.458694
	23.640000	0.560644
	23.645000	0.511313
	23.650000	0.406074
	23.655000	0.455405
	23.660000	0.557355
	23.665000	0.511313
	23.670000	0.406074
	23.675000	0.458694
	23.680000	0.557355
	23.685000	0.504736
	23.690000	0.406074
	23.695000	0.455405
	23.700000	0.557355
	23.705000	0.508024
	23.710000	0.406074
	23.715000	0.455405
	23.720000	0.560644
	23.725000	0.504736
	23.730000	0.402785
	23.735000	0.458694
	23.740000	0.554066
	23.745000	0.504736
	23.750000	0.402785
	23.755000	0.455405
	23.760000	0.554066
	23.765000	0.504736
	23.770000	0.406074
	23.775000	0.458694
	23.780000	0.557355
	23.785000	0.504736
	23.790000	0.406074
	23.795000	0.461982
	23.800000	0.557355
	23.805000	0.504736
	23.810000	0.406074
	23.815000	0.458694
	23.820000	0.557355
	23.825000	0.504736
	23.830000	0.402785
	23.835000	0.458694
	23.840000	0.557355
	23.845000	0.508024
	23.850000	0.406074
	23.855000	0.461982
	23.860000	0.563933
	23.865000	0.504736
	23.870000	0.406074
	23.875000	0.465271
	23.880000	0.560644
	23.885000	0.508024
	23.890000	0.406074
	23.895000	0.461982
	23.900000	0.560644
	23.905000	0.501447
	23.910000	0.406074
	23.915000	0.461982
	23.920000	0.557355
	23.925000	0.504736
	23.930000	0.402785
	23.935000	0.461982
	23.940000	0.557355
	23.945000	0.501447
	23.950000	0.406074
	23.955000	0.465271
	23.960000	0.560644
	23.965000	0.501447
	23.970000	0.406074
	23.975000	0.465271
	23.980000	0.563933
	23.985000	0.498158
	23.990000	0.402785
	23.995000	0.458694
	24.000000	0.557355
	24.005000	0.498158
	24.010000	0.406074
	24.015000	0.461982
	24.020000	0.560644
	24.025000	0.498158
	24.030000	0.406074
	24.035000	0.461982
	24.040000	0.560644
	24.045000	0.501447
	24.050000	0.402785
	24.055000	0.465271
	24.060000	0.560644
	24.065000	0.498158
	24.070000	0.399496
	24.075000	0.461982
	24.080000	0.557355
	24.085000	0.498158
	24.090000	0.402785
	24.095000	0.465271
	24.100000	0.554066
	24.105000	0.494869
	24.110000	0.402785
	24.115000	0.458694
	24.120000	0.557355
	24.125000	0.494869
	24.130000	0.402785
	24.135000	0.455405
	24.140000	0.550778
	24.145000	0.491581
	24.150000	0.396208
	24.155000	0.458694
	24.160000	0.550778
	24.165000	0.491581
	24.170000	0.396208
	24.175000	0.455405
	24.180000	0.547489
	24.185000	0.491581
	24.190000	0.392919
	24.195000	0.455405
	24.200000	0.550778
	24.205000	0.491581
	24.210000	0.392919
	24.215000	0.455405
	24.220000	0.554066
	24.225000	0.494869
	24.230000	0.402785
	24.235000	0.465271
	24.240000	0.547489
	24.245000	0.494869
	24.250000	0.406074
	24.255000	0.461982
	24.260000	0.554066
	24.265000	0.491581
	24.270000	0.399496
	24.275000	0.458694
	24.280000	0.557355
	24.285000	0.491581
	24.290000	0.402785
	24.295000	0.461982
	24.300000	0.557355
	24.305000	0.494869
	24.310000	0.406074
	24.315000	0.461982
	24.320000	0.557355
	24.325000	0.498158
	24.330000	0.402785
	24.335000	0.468560
	24.340000	0.557355
	24.345000	0.494869
	24.350000	0.399496
	24.355000	0.468560
	24.360000	0.557355
	24.365000	0.491581
	24.370000	0.406074
	24.375000	0.465271
	24.380000	0.554066
	24.385000	0.491581
	24.390000	0.406074
	24.395000	0.468560
	24.400000	0.557355
	24.405000	0.498158
	24.410000	0.409363
	24.415000	0.478426
	24.420000	0.567221
	24.425000	0.508024
	24.430000	0.419229
	24.435000	0.488292
	24.440000	0.580376
	24.445000	0.521179
	24.450000	0.432384
	24.455000	0.491581
	24.460000	0.577088
	24.465000	0.514602
	24.470000	0.429095
	24.475000	0.498158
	24.480000	0.573799
	24.485000	0.514602
	24.490000	0.419229
	24.495000	0.488292
	24.500000	0.570510
	24.505000	0.508024
	24.510000	0.419229
	24.515000	0.485003
	24.520000	0.570510
	24.525000	0.501447
	24.530000	0.409363
	24.535000	0.481715
	24.540000	0.570510
	24.545000	0.501447
	24.550000	0.412651
	24.555000	0.475137
	24.560000	0.560644
	24.565000	0.498158
	24.570000	0.409363
	24.575000	0.471848
	24.580000	0.563933
	24.585000	0.494869
	24.590000	0.406074
	24.595000	0.471848
	24.600000	0.560644
	24.605000	0.494869
	24.610000	0.406074
	24.615000	0.471848
	24.620000	0.557355
	24.625000	0.491581
	24.630000	0.406074
	24.635000	0.471848
	24.640000	0.557355
	24.645000	0.485003
	24.650000	0.402785
	24.655000	0.468560
	24.660000	0.557355
	24.665000	0.488292
	24.670000	0.402785
	24.675000	0.471848
	24.680000	0.557355
	24.685000	0.485003
	24.690000	0.396208
	24.695000	0.465271
	24.700000	0.554066
	24.705000	0.488292
	24.710000	0.399496
	24.715000	0.468560
	24.720000	0.554066
	24.725000	0.485003
	24.730000	0.392919
	24.735000	0.461982
	24.740000	0.550778
	24.745000	0.481715
	24.750000	0.386342
	24.755000	0.465271
	24.760000	0.550778
	24.765000	0.478426
	24.770000	0.392919
	24.775000	0.465271
	24.780000	0.547489
	24.785000	0.481715
	24.790000	0.392919
	24.795000	0.461982
	24.800000	0.550778
	24.805000	0.478426
	24.810000	0.389630
	24.815000	0.461982
	24.820000	0.547489
	24.825000	0.481715
	24.830000	0.392919
	24.835000	0.465271
	24.840000	0.547489
	24.845000	0.475137
	24.850000	0.392919
	24.855000	0.465271
	24.860000	0.544200
	24.865000	0.475137
	24.870000	0.389630
	24.875000	0.465271
	24.880000	0.540912
	24.885000	0.471848
	24.890000	0.392919
	24.895000	0.461982
	24.900000	0.544200
	24.905000	0.475137
	24.910000	0.383053
	24.915000	0.458694
	24.920000	0.544200
	24.925000	0.478426
	24.930000	0.386342
	24.935000	0.461982
	24.940000	0.550778
	24.945000	0.475137
	24.950000	0.383053
	24.955000	0.465271
	24.960000	0.544200
	24.965000	0.475137
	24.970000	0.383053
	24.975000	0.461982
	24.980000	0.544200
	24.985000	0.475137
	24.990000	0.392919
	24.995000	0.461982
	25.000000	0.547489
	25.005000	0.471848
	25.010000	0.386342
	25.015000	0.461982
	25.020000	0.547489
	25.025000	0.471848
	25.030000	0.386342
	25.035000	0.465271
	25.040000	0.547489
	25.045000	0.468560
	25.050000	0.386342
	25.055000	0.458694
	25.060000	0.544200
	25.065000	0.471848
	25.070000	0.386342
	25.075000	0.461982
	25.080000	0.544200
	25.085000	0.465271
	25.090000	0.386342
	25.095000	0.461982
	25.100000	0.547489
	25.105000	0.471848
	25.110000	0.386342
	25.115000	0.465271
	25.120000	0.550778
	25.125000	0.468560
	25.130000	0.386342
	25.135000	0.465271
	25.140000	0.540912
	25.145000	0.468560
	25.150000	0.386342
	25.155000	0.461982
	25.160000	0.544200
	25.165000	0.468560
	25.170000	0.383053
	25.175000	0.465271
	25.180000	0.544200
	25.185000	0.465271
	25.190000	0.383053
	25.195000	0.461982
	25.200000	0.547489
	25.205000	0.465271
	25.210000	0.386342
	25.215000	0.465271
	25.220000	0.540912
	25.225000	0.468560
	25.230000	0.379764
	25.235000	0.465271
	25.240000	0.540912
	25.245000	0.465271
	25.250000	0.386342
	25.255000	0.468560
	25.260000	0.544200
	25.265000	0.468560
	25.270000	0.386342
	25.275000	0.458694
	25.280000	0.544200
	25.285000	0.465271
	25.290000	0.383053
	25.295000	0.465271
	25.300000	0.540912
	25.305000	0.465271
	25.310000	0.383053
	25.315000	0.465271
	25.320000	0.544200
	25.325000	0.468560
	25.330000	0.386342
	25.335000	0.465271
	25.340000	0.544200
	25.345000	0.458694
	25.350000	0.386342
	25.355000	0.465271
	25.360000	0.540912
	25.365000	0.461982
	25.370000	0.379764
	25.375000	0.458694
	25.380000	0.544200
	25.385000	0.461982
	25.390000	0.386342
	25.395000	0.465271
	25.400000	0.544200
	25.405000	0.461982
	25.410000	0.379764
	25.415000	0.465271
	25.420000	0.544200
	25.425000	0.465271
	25.430000	0.383053
	25.435000	0.461982
	25.440000	0.537623
	25.445000	0.458694
	25.450000	0.383053
	25.455000	0.465271
	25.460000	0.544200
	25.465000	0.465271
	25.470000	0.379764
	25.475000	0.461982
	25.480000	0.547489
	25.485000	0.458694
	25.490000	0.383053
	25.495000	0.465271
	25.500000	0.544200
	25.505000	0.461982
	25.510000	0.383053
	25.515000	0.465271
	25.520000	0.540912
	25.525000	0.458694
	25.530000	0.383053
	25.535000	0.468560
	25.540000	0.544200
	25.545000	0.458694
	25.550000	0.383053
	25.555000	0.468560
	25.560000	0.544200
	25.565000	0.455405
	25.570000	0.379764
	25.575000	0.461982
	25.580000	0.540912
	25.585000	0.455405
	25.590000	0.379764
	25.595000	0.461982
	25.600000	0.540912
	25.605000	0.455405
	25.610000	0.379764
	25.615000	0.461982
	25.620000	0.537623
	25.625000	0.458694
	25.630000	0.379764
	25.635000	0.465271
	25.640000	0.537623
	25.645000	0.458694
	25.650000	0.383053
	25.655000	0.461982
	25.660000	0.540912
	25.665000	0.455405
	25.670000	0.379764
	25.675000	0.468560
	25.680000	0.540912
	25.685000	0.455405
	25.690000	0.386342
	25.695000	0.468560
	25.700000	0.544200
	25.705000	0.455405
	25.710000	0.379764
	25.715000	0.461982
	25.720000	0.534334
	25.725000	0.455405
	25.730000	0.379764
	25.735000	0.471848
	25.740000	0.540912
	25.745000	0.452116
	25.750000	0.383053
	25.755000	0.468560
	25.760000	0.534334
	25.765000	0.455405
	25.770000	0.379764
	25.775000	0.471848
	25.780000	0.537623
	25.785000	0.452116
	25.790000	0.379764
	25.795000	0.465271
	25.800000	0.537623
	25.805000	0.448827
	25.810000	0.379764
	25.815000	0.468560
	25.820000	0.537623
	25.825000	0.455405
	25.830000	0.383053
	25.835000	0.468560
	25.840000	0.537623
	25.845000	0.452116
	25.850000	0.379764
	25.855000	0.471848
	25.860000	0.531045
	25.865000	0.452116
	25.870000	0.373187
	25.875000	0.468560
	25.880000	0.537623
	25.885000	0.448827
	25.890000	0.379764
	25.895000	0.461982
	25.900000	0.540912
	25.905000	0.452116
	25.910000	0.379764
	25.915000	0.468560
	25.920000	0.537623
	25.925000	0.448827
	25.930000	0.376475
	25.935000	0.465271
	25.940000	0.534334
	25.945000	0.448827
	25.950000	0.376475
	25.955000	0.465271
	25.960000	0.534334
	25.965000	0.445539
	25.970000	0.376475
	25.975000	0.468560
	25.980000	0.537623
	25.985000	0.442250
	25.990000	0.373187
	25.995000	0.461982
	26.000000	0.534334
	26.005000	0.445539
	26.010000	0.376475
	26.015000	0.468560
	26.020000	0.534334
	26.025000	0.442250
	26.030000	0.379764
	26.035000	0.468560
	26.040000	0.534334
	26.045000	0.452116
	26.050000	0.379764
	26.055000	0.465271
	26.060000	0.534334
	26.065000	0.452116
	26.070000	0.379764
	26.075000	0.468560
	26.080000	0.537623
	26.085000	0.448827
	26.090000	0.376475
	26.095000	0.468560
	26.100000	0.544200
	26.105000	0.448827
	26.110000	0.383053
	26.115000	0.471848
	26.120000	0.534334
	26.125000	0.448827
	26.130000	0.383053
	26.135000	0.471848
	26.140000	0.534334
	26.145000	0.452116
	26.150000	0.383053
	26.155000	0.475137
	26.160000	0.540912
	26.165000	0.448827
	26.170000	0.386342
	26.175000	0.471848
	26.180000	0.537623
	26.185000	0.448827
	26.190000	0.383053
	26.195000	0.471848
	26.200000	0.537623
	26.205000	0.452116
	26.210000	0.386342
	26.215000	0.471848
	26.220000	0.537623
	26.225000	0.448827
	26.230000	0.383053
	26.235000	0.475137
	26.240000	0.537623
	26.245000	0.455405
	26.250000	0.396208
	26.255000	0.488292
	26.260000	0.554066
	26.265000	0.465271
	26.270000	0.409363
	26.275000	0.498158
	26.280000	0.560644
	26.285000	0.471848
	26.290000	0.412651
	26.295000	0.501447
	26.300000	0.560644
	26.305000	0.471848
	26.310000	0.409363
	26.315000	0.498158
	26.320000	0.554066
	26.325000	0.468560
	26.330000	0.406074
	26.335000	0.488292
	26.340000	0.550778
	26.345000	0.458694
	26.350000	0.396208
	26.355000	0.488292
	26.360000	0.544200
	26.365000	0.452116
	26.370000	0.399496
	26.375000	0.481715
	26.380000	0.540912
	26.385000	0.452116
	26.390000	0.396208
	26.395000	0.478426
	26.400000	0.544200
	26.405000	0.445539
	26.410000	0.389630
	26.415000	0.475137
	26.420000	0.534334
	26.425000	0.448827
	26.430000	0.379764
	26.435000	0.481715
	26.440000	0.534334
	26.445000	0.445539
	26.450000	0.383053
	26.455000	0.475137
	26.460000	0.534334
	26.465000	0.442250
	26.470000	0.383053
	26.475000	0.475137
	26.480000	0.531045
	26.485000	0.435672
	26.490000	0.379764
	26.495000	0.471848
	26.500000	0.531045
	26.505000	0.445539
	26.510000	0.383053
	26.515000	0.475137
	26.520000	0.527757
	26.525000	0.442250
	26.530000	0.379764
	26.535000	0.471848
	26.540000	0.527757
	26.545000	0.435672
	26.550000	0.376475
	26.555000	0.471848
	26.560000	0.531045
	26.565000	0.435672
	26.570000	0.379764
	26.575000	0.468560
	26.580000	0.527757
	26.585000	0.432384
	26.590000	0.379764
	26.595000	0.471848
	26.600000	0.527757
	26.605000	0.435672
	26.610000	0.376475
	26.615000	0.468560
	26.620000	0.531045
	26.625000	0.435672
	26.630000	0.373187
	26.635000	0.471848
	26.640000	0.524468
	26.645000	0.435672
	26.650000	0.373187
	26.655000	0.468560
	26.660000	0.527757
	26.665000	0.432384
	26.670000	0.373187
	26.675000	0.468560
	26.680000	0.524468
	26.685000	0.429095
	26.690000	0.376475
	26.695000	0.468560
	26.700000	0.527757
	26.705000	0.432384
	26.710000	0.373187
	26.715000	0.468560
	26.720000	0.527757
	26.725000	0.429095
	26.730000	0.376475
	26.735000	0.471848
	26.740000	0.521179
	26.745000	0.429095
	26.750000	0.379764
	26.755000	0.471848
	26.760000	0.524468
	26.765000	0.429095
	26.770000	0.376475
	26.775000	0.468560
	26.780000	0.524468
	26.785000	0.425806
	26.790000	0.373187
	26.795000	0.471848
	26.800000	0.521179
	26.805000	0.425806
	26.810000	0.373187
	26.815000	0.468560
	26.820000	0.524468
	26.825000	0.425806
	26.830000	0.369898
	26.835000	0.471848
	26.840000	0.527757
	26.845000	0.429095
	26.850000	0.373187
	26.855000	0.471848
	26.860000	0.524468
	26.865000	0.425806
	26.870000	0.369898
	26.875000	0.468560
	26.880000	0.521179
	26.885000	0.422518
	26.890000	0.373187
	26.895000	0.475137
	26.900000	0.524468
	26.905000	0.422518
	26.910000	0.373187
	26.915000	0.478426
	26.920000	0.521179
	26.925000	0.422518
	26.930000	0.373187
	26.935000	0.468560
	26.940000	0.524468
	26.945000	0.425806
	26.950000	0.373187
	26.955000	0.468560
	26.960000	0.521179
	26.965000	0.419229
	26.970000	0.373187
	26.975000	0.468560
	26.980000	0.521179
	26.985000	0.422518
	26.990000	0.369898
	26.995000	0.475137
	27.000000	0.524468
	27.005000	0.425806
	27.010000	0.369898
	27.015000	0.471848
	27.020000	0.517891
	27.025000	0.425806
	27.030000	0.376475
	27.035000	0.475137
	27.040000	0.521179
	27.045000	0.419229
	27.050000	0.376475
	27.055000	0.471848
	27.060000	0.524468
	27.065000	0.422518
	27.070000	0.373187
	27.075000	0.475137
	27.080000	0.517891
	27.085000	0.422518
	27.090000	0.369898
	27.095000	0.475137
	27.100000	0.524468
	27.105000	0.419229
	27.110000	0.373187
	27.115000	0.478426
	27.120000	0.521179
	27.125000	0.419229
	27.130000	0.369898
	27.135000	0.471848
	27.140000	0.521179
	27.145000	0.415940
	27.150000	0.369898
	27.155000	0.475137
	27.160000	0.517891
	27.165000	0.419229
	27.170000	0.366609
	27.175000	0.468560
	27.180000	0.521179
	27.185000	0.415940
	27.190000	0.369898
	27.195000	0.471848
	27.200000	0.517891
	27.205000	0.415940
	27.210000	0.369898
	27.215000	0.475137
	27.220000	0.514602
	27.225000	0.415940
	27.230000	0.369898
	27.235000	0.471848
	27.240000	0.514602
	27.245000	0.412651
	27.250000	0.373187
	27.255000	0.471848
	27.260000	0.517891
	27.265000	0.412651
	27.270000	0.369898
	27.275000	0.471848
	27.280000	0.521179
	27.285000	0.415940
	27.290000	0.366609
	27.295000	0.471848
	27.300000	0.517891
	27.305000	0.412651
	27.310000	0.373187
	27.315000	0.471848
	27.320000	0.517891
	27.325000	0.412651
	27.330000	0.369898
	27.335000	0.475137
	27.340000	0.517891
	27.345000	0.412651
	27.350000	0.369898
	27.355000	0.471848
	27.360000	0.514602
	27.365000	0.415940
	27.370000	0.369898
	27.375000	0.471848
	27.380000	0.517891
	27.385000	0.412651
	27.390000	0.369898
	27.395000	0.471848
	27.400000	0.511313
	27.405000	0.412651
	27.410000	0.366609
	27.415000	0.475137
	27.420000	0.514602
	27.425000	0.412651
	27.430000	0.373187
	27.435000	0.471848
	27.440000	0.517891
	27.445000	0.412651
	27.450000	0.366609
	27.455000	0.471848
	27.460000	0.514602
	27.465000	0.409363
	27.470000	0.369898
	27.475000	0.471848
	27.480000	0.511313
	27.485000	0.412651
	27.490000	0.366609
	27.495000	0.471848
	27.500000	0.514602
	27.505000	0.406074
	27.510000	0.369898
	27.515000	0.471848
	27.520000	0.511313
	27.525000	0.409363
	27.530000	0.369898
	27.535000	0.478426
	27.540000	0.514602
	27.545000	0.406074
	27.550000	0.369898
	27.555000	0.475137
	27.560000	0.511313
	27.565000	0.406074
	27.570000	0.363321
	27.575000	0.471848
	27.580000	0.511313
	27.585000	0.409363
	27.590000	0.363321
	27.595000	0.475137
	27.600000	0.511313
	27.605000	0.406074
	27.610000	0.366609
	27.615000	0.471848
	27.620000	0.511313
	27.625000	0.406074
	27.630000	0.369898
	27.635000	0.468560
	27.640000	0.514602
	27.645000	0.402785
	27.650000	0.366609
	27.655000	0.471848
	27.660000	0.511313
	27.665000	0.406074
	27.670000	0.366609
	27.675000	0.475137
	27.680000	0.511313
	27.685000	0.402785
	27.690000	0.366609
	27.695000	0.478426
	27.700000	0.508024
	27.705000	0.409363
	27.710000	0.369898
	27.715000	0.471848
	27.720000	0.511313
	27.725000	0.402785
	27.730000	0.363321
	27.735000	0.475137
	27.740000	0.514602
	27.745000	0.406074
	27.750000	0.366609
	27.755000	0.475137
	27.760000	0.511313
	27.765000	0.399496
	27.770000	0.366609
	27.775000	0.471848
	27.780000	0.508024
	27.785000	0.402785
	27.790000	0.363321
	27.795000	0.465271
	27.800000	0.508024
	27.805000	0.396208
	27.810000	0.363321
	27.815000	0.471848
	27.820000	0.504736
	27.825000	0.396208
	27.830000	0.363321
	27.835000	0.471848
	27.840000	0.504736
	27.845000	0.392919
	27.850000	0.360032
	27.855000	0.471848
	27.860000	0.501447
	27.865000	0.399496
	27.870000	0.363321
	27.875000	0.471848
	27.880000	0.508024
	27.885000	0.402785
	27.890000	0.366609
	27.895000	0.478426
	27.900000	0.508024
	27.905000	0.399496
	27.910000	0.363321
	27.915000	0.475137
	27.920000	0.504736
	27.925000	0.402785
	27.930000	0.369898
	27.935000	0.478426
	27.940000	0.504736
	27.945000	0.402785
	27.950000	0.373187
	27.955000	0.478426
	27.960000	0.508024
	27.965000	0.402785
	27.970000	0.369898
	27.975000	0.478426
	27.980000	0.511313
	27.985000	0.406074
	27.990000	0.376475
	27.995000	0.478426
	28.000000	0.511313
	28.005000	0.406074
	28.010000	0.369898
	28.015000	0.481715
	28.020000	0.508024
	28.025000	0.402785
	28.030000	0.369898
	28.035000	0.475137
	28.040000	0.511313
	28.045000	0.402785
	28.050000	0.369898
	28.055000	0.481715
	28.060000	0.511313
	28.065000	0.406074
	28.070000	0.379764
	28.075000	0.481715
	28.080000	0.508024
	28.085000	0.409363
	28.090000	0.376475
	28.095000	0.488292
	28.100000	0.517891
	28.105000	0.422518
	28.110000	0.399496
	28.115000	0.501447
	28.120000	0.531045
	28.125000	0.438961
	28.130000	0.406074
	28.135000	0.511313
	28.140000	0.537623
	28.145000	0.429095
	28.150000	0.406074
	28.155000	0.511313
	28.160000	0.537623
	28.165000	0.425806
	28.170000	0.402785
	28.175000	0.501447
	28.180000	0.524468
	28.185000	0.422518
	28.190000	0.389630
	28.195000	0.498158
	28.200000	0.524468
	28.205000	0.415940
	28.210000	0.389630
	28.215000	0.491581
	28.220000	0.514602
	28.225000	0.409363
	28.230000	0.389630
	28.235000	0.488292
	28.240000	0.517891
	28.245000	0.406074
	28.250000	0.383053
	28.255000	0.488292
	28.260000	0.514602
	28.265000	0.402785
	28.270000	0.376475
	28.275000	0.478426
	28.280000	0.511313
	28.285000	0.406074
	28.290000	0.376475
	28.295000	0.485003
	28.300000	0.508024
	28.305000	0.406074
	28.310000	0.379764
	28.315000	0.481715
	28.320000	0.504736
	28.325000	0.399496
	28.330000	0.379764
	28.335000	0.481715
	28.340000	0.504736
	28.345000	0.399496
	28.350000	0.373187
	28.355000	0.478426
	28.360000	0.501447
	28.365000	0.392919
	28.370000	0.373187
	28.375000	0.481715
	28.380000	0.501447
	28.385000	0.392919
	28.390000	0.369898
	28.395000	0.478426
	28.400000	0.498158
	28.405000	0.389630
	28.410000	0.366609
	28.415000	0.475137
	28.420000	0.498158
	28.425000	0.389630
	28.430000	0.369898
	28.435000	0.478426
	28.440000	0.494869
	28.445000	0.386342
	28.450000	0.366609
	28.455000	0.471848
	28.460000	0.498158
	28.465000	0.392919
	28.470000	0.363321
	28.475000	0.478426
	28.480000	0.501447
	28.485000	0.389630
	28.490000	0.366609
	28.495000	0.471848
	28.500000	0.494869
	28.505000	0.389630
	28.510000	0.366609
	28.515000	0.471848
	28.520000	0.494869
	28.525000	0.379764
	28.530000	0.363321
	28.535000	0.475137
	28.540000	0.498158
	28.545000	0.389630
	28.550000	0.366609
	28.555000	0.471848
	28.560000	0.491581
	28.565000	0.379764
	28.570000	0.363321
	28.575000	0.471848
	28.580000	0.494869
	28.585000	0.383053
	28.590000	0.363321
	28.595000	0.475137
	28.600000	0.494869
	28.605000	0.386342
	28.610000	0.366609
	28.615000	0.471848
	28.620000	0.498158
	28.625000	0.383053
	28.630000	0.363321
	28.635000	0.471848
	28.640000	0.494869
	28.645000	0.383053
	28.650000	0.363321
	28.655000	0.475137
	28.660000	0.494869
	28.665000	0.379764
	28.670000	0.363321
	28.675000	0.475137
	28.680000	0.491581
	28.685000	0.379764
	28.690000	0.360032
	28.695000	0.471848
	28.700000	0.491581
	28.705000	0.379764
	28.710000	0.363321
	28.715000	0.471848
	28.720000	0.491581
	28.725000	0.379764
	28.730000	0.363321
	28.735000	0.475137
	28.740000	0.494869
	28.745000	0.379764
	28.750000	0.366609
	28.755000	0.475137
	28.760000	0.494869
	28.765000	0.379764
	28.770000	0.363321
	28.775000	0.471848
	28.780000	0.491581
	28.785000	0.376475
	28.790000	0.363321
	28.795000	0.471848
	28.800000	0.491581
	28.805000	0.379764
	28.810000	0.360032
	28.815000	0.471848
	28.820000	0.491581
	28.825000	0.376475
	28.830000	0.363321
	28.835000	0.475137
	28.840000	0.491581
	28.845000	0.379764
	28.850000	0.363321
	28.855000	0.471848
	28.860000	0.491581
	28.865000	0.379764
	28.870000	0.363321
	28.875000	0.471848
	28.880000	0.488292
	28.885000	0.379764
	28.890000	0.366609
	28.895000	0.475137
	28.900000	0.488292
	28.905000	0.376475
	28.910000	0.363321
	28.915000	0.478426
	28.920000	0.491581
	28.925000	0.376475
	28.930000	0.363321
	28.935000	0.475137
	28.940000	0.488292
	28.945000	0.373187
	28.950000	0.363321
	28.955000	0.471848
	28.960000	0.488292
	28.965000	0.379764
	28.970000	0.363321
	28.975000	0.475137
	28.980000	0.485003
	28.985000	0.376475
	28.990000	0.366609
	28.995000	0.475137
	29.000000	0.485003
	29.005000	0.376475
	29.010000	0.360032
	29.015000	0.471848
	29.020000	0.485003
	29.025000	0.373187
	29.030000	0.363321
	29.035000	0.475137
	29.040000	0.485003
	29.045000	0.379764
	29.050000	0.360032
	29.055000	0.475137
	29.060000	0.488292
	29.065000	0.373187
	29.070000	0.366609
	29.075000	0.475137
	29.080000	0.485003
	29.085000	0.376475
	29.090000	0.366609
	29.095000	0.478426
	29.100000	0.485003
	29.105000	0.373187
	29.110000	0.363321
	29.115000	0.478426
	29.120000	0.485003
	29.125000	0.369898
	29.130000	0.363321
	29.135000	0.475137
	29.140000	0.485003
	29.145000	0.373187
	29.150000	0.363321
	29.155000	0.478426
	29.160000	0.485003
	29.165000	0.376475
	29.170000	0.360032
	29.175000	0.475137
	29.180000	0.485003
	29.185000	0.366609
	29.190000	0.363321
	29.195000	0.475137
	29.200000	0.485003
	29.205000	0.373187
	29.210000	0.363321
	29.215000	0.471848
	29.220000	0.481715
	29.225000	0.366609
	29.230000	0.363321
	29.235000	0.475137
	29.240000	0.485003
	29.245000	0.373187
	29.250000	0.363321
	29.255000	0.475137
	29.260000	0.478426
	29.265000	0.366609
	29.270000	0.363321
	29.275000	0.478426
	29.280000	0.481715
	29.285000	0.366609
	29.290000	0.360032
	29.295000	0.475137
	29.300000	0.485003
	29.305000	0.366609
	29.310000	0.363321
	29.315000	0.478426
	29.320000	0.481715
	29.325000	0.366609
	29.330000	0.363321
	29.335000	0.475137
	29.340000	0.485003
	29.345000	0.366609
	29.350000	0.363321
	29.355000	0.475137
	29.360000	0.481715
	29.365000	0.366609
	29.370000	0.363321
	29.375000	0.475137
	29.380000	0.481715
	29.385000	0.373187
	29.390000	0.363321
	29.395000	0.475137
	29.400000	0.485003
	29.405000	0.369898
	29.410000	0.360032
	29.415000	0.475137
	29.420000	0.481715
	29.425000	0.360032
	29.430000	0.363321
	29.435000	0.481715
	29.440000	0.481715
	29.445000	0.369898
	29.450000	0.363321
	29.455000	0.478426
	29.460000	0.481715
	29.465000	0.366609
	29.470000	0.366609
	29.475000	0.475137
	29.480000	0.485003
	29.485000	0.366609
	29.490000	0.366609
	29.495000	0.475137
	29.500000	0.481715
	29.505000	0.369898
	29.510000	0.366609
	29.515000	0.478426
	29.520000	0.478426
	29.525000	0.360032
	29.530000	0.366609
	29.535000	0.485003
	29.540000	0.481715
	29.545000	0.366609
	29.550000	0.366609
	29.555000	0.475137
	29.560000	0.478426
	29.565000	0.366609
	29.570000	0.363321
	29.575000	0.478426
	29.580000	0.478426
	29.585000	0.363321
	29.590000	0.366609
	29.595000	0.471848
	29.600000	0.475137
	29.605000	0.363321
	29.610000	0.360032
	29.615000	0.475137
	29.620000	0.471848
	29.625000	0.360032
	29.630000	0.360032
	29.635000	0.471848
	29.640000	0.478426
	29.645000	0.356743
	29.650000	0.360032
	29.655000	0.471848
	29.660000	0.475137
	29.665000	0.363321
	29.670000	0.356743
	29.675000	0.471848
	29.680000	0.475137
	29.685000	0.356743
	29.690000	0.363321
	29.695000	0.475137
	29.700000	0.471848
	29.705000	0.363321
	29.710000	0.363321
	29.715000	0.471848
	29.720000	0.475137
	29.725000	0.363321
	29.730000	0.369898
	29.735000	0.475137
	29.740000	0.475137
	29.745000	0.363321
	29.750000	0.363321
	29.755000	0.475137
	29.760000	0.478426
	29.765000	0.366609
	29.770000	0.366609
	29.775000	0.478426
	29.780000	0.478426
	29.785000	0.369898
	29.790000	0.369898
	29.795000	0.478426
	29.800000	0.478426
	29.805000	0.366609
	29.810000	0.373187
	29.815000	0.478426
	29.820000	0.485003
	29.825000	0.369898
	29.830000	0.369898
	29.835000	0.481715
	29.840000	0.475137
	29.845000	0.369898
	29.850000	0.376475
	29.855000	0.478426
	29.860000	0.481715
	29.865000	0.373187
	29.870000	0.369898
	29.875000	0.478426
	29.880000	0.481715
	29.885000	0.369898
	29.890000	0.373187
	29.895000	0.481715
	29.900000	0.481715
	29.905000	0.373187
	29.910000	0.379764
	29.915000	0.491581
	29.920000	0.488292
	29.925000	0.383053
	29.930000	0.396208
	29.935000	0.498158
	29.940000	0.501447
	29.945000	0.392919
	29.950000	0.402785
	29.955000	0.504736
	29.960000	0.501447
	29.965000	0.386342
	29.970000	0.399496
	29.975000	0.501447
	29.980000	0.494869
	29.985000	0.383053
	29.990000	0.389630
	29.995000	0.498158
	30.000000	0.488292
	30.005000	0.379764
	30.010000	0.386342
	30.015000	0.491581
	30.020000	0.491581
	30.025000	0.373187
	30.030000	0.383053
	30.035000	0.491581
	30.040000	0.485003
	30.045000	0.373187
	30.050000	0.376475
	30.055000	0.485003
	30.060000	0.481715
	30.065000	0.369898
	30.070000	0.383053
	30.075000	0.485003
	30.080000	0.481715
	30.085000	0.366609
	30.090000	0.369898
	30.095000	0.485003
	30.100000	0.475137
	30.105000	0.363321
	30.110000	0.373187
	30.115000	0.485003
	30.120000	0.475137
	30.125000	0.366609
	30.130000	0.369898
	30.135000	0.485003
	30.140000	0.471848
	30.145000	0.366609
	30.150000	0.369898
	30.155000	0.481715
	30.160000	0.471848
	30.165000	0.360032
	30.170000	0.369898
	30.175000	0.481715
	30.180000	0.471848
	30.185000	0.360032
	30.190000	0.369898
	30.195000	0.481715
	30.200000	0.471848
	30.205000	0.360032
	30.210000	0.366609
	30.215000	0.478426
	30.220000	0.471848
	30.225000	0.360032
	30.230000	0.366609
	30.235000	0.475137
	30.240000	0.465271
	30.245000	0.356743
	30.250000	0.363321
	30.255000	0.471848
	30.260000	0.465271
	30.265000	0.353454
	30.270000	0.360032
	30.275000	0.475137
	30.280000	0.465271
	30.285000	0.353454
	30.290000	0.363321
	30.295000	0.471848
	30.300000	0.468560
	30.305000	0.353454
	30.310000	0.363321
	30.315000	0.475137
	30.320000	0.461982
	30.325000	0.353454
	30.330000	0.366609
	30.335000	0.471848
	30.340000	0.465271
	30.345000	0.350166
	30.350000	0.360032
	30.355000	0.475137
	30.360000	0.461982
	30.365000	0.353454
	30.370000	0.360032
	30.375000	0.475137
	30.380000	0.465271
	30.385000	0.353454
	30.390000	0.356743
	30.395000	0.471848
	30.400000	0.458694
	30.405000	0.350166
	30.410000	0.363321
	30.415000	0.471848
	30.420000	0.461982
	30.425000	0.350166
	30.430000	0.363321
	30.435000	0.475137
	30.440000	0.461982
	30.445000	0.346877
	30.450000	0.360032
	30.455000	0.471848
	30.460000	0.461982
	30.465000	0.346877
	30.470000	0.366609
	30.475000	0.471848
	30.480000	0.458694
	30.485000	0.346877
	30.490000	0.360032
	30.495000	0.471848
	30.500000	0.458694
	30.505000	0.346877
	30.510000	0.363321
	30.515000	0.475137
	30.520000	0.455405
	30.525000	0.346877
	30.530000	0.363321
	30.535000	0.471848
	30.540000	0.458694
	30.545000	0.346877
	30.550000	0.363321
	30.555000	0.468560
	30.560000	0.455405
	30.565000	0.346877
	30.570000	0.356743
	30.575000	0.468560
	30.580000	0.455405
	30.585000	0.343588
	30.590000	0.363321
	30.595000	0.475137
	30.600000	0.458694
	30.605000	0.343588
	30.610000	0.363321
	30.615000	0.475137
	30.620000	0.461982
	30.625000	0.346877
	30.630000	0.360032
	30.635000	0.471848
	30.640000	0.458694
	30.645000	0.346877
	30.650000	0.360032
	30.655000	0.471848
	30.660000	0.458694
	30.665000	0.350166
	30.670000	0.360032
	30.675000	0.471848
	30.680000	0.455405
	30.685000	0.340299
	30.690000	0.363321
	30.695000	0.471848
	30.700000	0.458694
	30.705000	0.343588
	30.710000	0.366609
	30.715000	0.471848
	30.720000	0.455405
	30.725000	0.343588
	30.730000	0.360032
	30.735000	0.475137
	30.740000	0.452116
	30.745000	0.340299
	30.750000	0.360032
	30.755000	0.475137
	30.760000	0.452116
	30.765000	0.340299
	30.770000	0.363321
	30.775000	0.471848
	30.780000	0.458694
	30.785000	0.346877
	30.790000	0.360032
	30.795000	0.471848
	30.800000	0.455405
	30.805000	0.343588
	30.810000	0.360032
	30.815000	0.471848
	30.820000	0.452116
	30.825000	0.340299
	30.830000	0.363321
	30.835000	0.471848
	30.840000	0.455405
	30.845000	0.343588
	30.850000	0.363321
	30.855000	0.471848
	30.860000	0.455405
	30.865000	0.340299
	30.870000	0.363321
	30.875000	0.471848
	30.880000	0.448827
	30.885000	0.340299
	30.890000	0.360032
	30.895000	0.475137
	30.900000	0.452116
	30.905000	0.343588
	30.910000	0.356743
	30.915000	0.468560
	30.920000	0.452116
	30.925000	0.340299
	30.930000	0.360032
	30.935000	0.468560
	30.940000	0.452116
	30.945000	0.340299
	30.950000	0.360032
	30.955000	0.475137
	30.960000	0.448827
	30.965000	0.340299
	30.970000	0.360032
	30.975000	0.475137
	30.980000	0.452116
	30.985000	0.340299
	30.990000	0.363321
	30.995000	0.468560
	31.000000	0.452116
	31.005000	0.337011
	31.010000	0.360032
	31.015000	0.465271
	31.020000	0.452116
	31.025000	0.343588
	31.030000	0.360032
	31.035000	0.468560
	31.040000	0.452116
	31.045000	0.337011
	31.050000	0.360032
	31.055000	0.471848
	31.060000	0.445539
	31.065000	0.333722
	31.070000	0.360032
	31.075000	0.468560
	31.080000	0.445539
	31.085000	0.337011
	31.090000	0.360032
	31.095000	0.475137
	31.100000	0.445539
	31.105000	0.333722
	31.110000	0.360032
	31.115000	0.468560
	31.120000	0.445539
	31.125000	0.337011
	31.130000	0.360032
	31.135000	0.468560
	31.140000	0.445539
	31.145000	0.330433
	31.150000	0.360032
	31.155000	0.468560
	31.160000	0.448827
	31.165000	0.330433
	31.170000	0.360032
	31.175000	0.468560
	31.180000	0.445539
	31.185000	0.337011
	31.190000	0.356743
	31.195000	0.468560
	31.200000	0.442250
	31.205000	0.337011
	31.210000	0.360032
	31.215000	0.475137
	31.220000	0.442250
	31.225000	0.330433
	31.230000	0.366609
	31.235000	0.468560
	31.240000	0.445539
	31.245000	0.337011
	31.250000	0.363321
	31.255000	0.465271
	31.260000	0.442250
	31.265000	0.333722
	31.270000	0.360032
	31.275000	0.465271
	31.280000	0.448827
	31.285000	0.330433
	31.290000	0.360032
	31.295000	0.465271
	31.300000	0.442250
	31.305000	0.333722
	31.310000	0.360032
	31.315000	0.471848
	31.320000	0.442250
	31.325000	0.330433
	31.330000	0.360032
	31.335000	0.471848
	31.340000	0.448827
	31.345000	0.337011
	31.350000	0.360032
	31.355000	0.471848
	31.360000	0.442250
	31.365000	0.330433
	31.370000	0.363321
	31.375000	0.471848
	31.380000	0.442250
	31.385000	0.333722
	31.390000	0.360032
	31.395000	0.471848
	31.400000	0.442250
	31.405000	0.330433
	31.410000	0.360032
	31.415000	0.471848
	31.420000	0.445539
	31.425000	0.330433
	31.430000	0.363321
	31.435000	0.471848
	31.440000	0.442250
	31.445000	0.333722
	31.450000	0.366609
	31.455000	0.471848
	31.460000	0.438961
	31.465000	0.333722
	31.470000	0.360032
	31.475000	0.468560
	31.480000	0.442250
	31.485000	0.327145
	31.490000	0.360032
	31.495000	0.468560
	31.500000	0.442250
	31.505000	0.330433
	31.510000	0.363321
	31.515000	0.471848
	31.520000	0.442250
	31.525000	0.333722
	31.530000	0.360032
	31.535000	0.468560
	31.540000	0.442250
	31.545000	0.330433
	31.550000	0.356743
	31.555000	0.468560
	31.560000	0.435672
	31.565000	0.327145
	31.570000	0.356743
	31.575000	0.468560
	31.580000	0.435672
	31.585000	0.323856
	31.590000	0.356743
	31.595000	0.465271
	31.600000	0.435672
	31.605000	0.330433
	31.610000	0.356743
	31.615000	0.465271
	31.620000	0.432384
	31.625000	0.323856
	31.630000	0.353454
	31.635000	0.465271
	31.640000	0.435672
	31.645000	0.327145
	31.650000	0.356743
	31.655000	0.465271
	31.660000	0.435672
	31.665000	0.330433
	31.670000	0.360032
	31.675000	0.471848
	31.680000	0.435672
	31.685000	0.333722
	31.690000	0.363321
	31.695000	0.468560
	31.700000	0.438961
	31.705000	0.330433
	31.710000	0.360032
	31.715000	0.471848
	31.720000	0.438961
	31.725000	0.330433
	31.730000	0.363321
	31.735000	0.465271
	31.740000	0.442250
	31.745000	0.333722
	31.750000	0.363321
	31.755000	0.471848
	31.760000	0.438961
	31.765000	0.333722
	31.770000	0.369898
	31.775000	0.471848
	31.780000	0.438961
	31.785000	0.340299
	31.790000	0.369898
	31.795000	0.471848
	31.800000	0.438961
	31.805000	0.337011
	31.810000	0.366609
	31.815000	0.468560
	31.820000	0.442250
	31.825000	0.333722
	31.830000	0.363321
	31.835000	0.471848
	31.840000	0.442250
	31.845000	0.333722
	31.850000	0.373187
	31.855000	0.475137
	31.860000	0.442250
	31.865000	0.340299
	31.870000	0.379764
	31.875000	0.488292
	31.880000	0.452116
	31.885000	0.360032
	31.890000	0.392919
	31.895000	0.498158
	31.900000	0.465271
	31.905000	0.360032
	31.910000	0.399496
	31.915000	0.498158
	31.920000	0.465271
	31.925000	0.356743
	31.930000	0.392919
	31.935000	0.494869
	31.940000	0.458694
	31.945000	0.353454
	31.950000	0.386342
	31.955000	0.488292
	31.960000	0.452116
	31.965000	0.350166
	31.970000	0.386342
	31.975000	0.491581
	31.980000	0.448827
	31.985000	0.346877
	31.990000	0.379764
	31.995000	0.488292
	32.000000	0.445539
	32.005000	0.343588
	32.010000	0.373187
	32.015000	0.481715
	32.020000	0.442250
	32.025000	0.340299
	32.030000	0.379764
	32.035000	0.475137
	32.040000	0.442250
	32.045000	0.333722
	32.050000	0.373187
	32.055000	0.478426
	32.060000	0.438961
	32.065000	0.333722
	32.070000	0.369898
	32.075000	0.471848
	32.080000	0.435672
	32.085000	0.330433
	32.090000	0.369898
	32.095000	0.475137
	32.100000	0.435672
	32.105000	0.330433
	32.110000	0.366609
	32.115000	0.471848
	32.120000	0.435672
	32.125000	0.330433
	32.130000	0.369898
	32.135000	0.468560
	32.140000	0.432384
	32.145000	0.327145
	32.150000	0.366609
	32.155000	0.468560
	32.160000	0.429095
	32.165000	0.323856
	32.170000	0.366609
	32.175000	0.465271
	32.180000	0.429095
	32.185000	0.327145
	32.190000	0.363321
	32.195000	0.471848
	32.200000	0.425806
	32.205000	0.323856
	32.210000	0.363321
	32.215000	0.465271
	32.220000	0.422518
	32.225000	0.320567
	32.230000	0.363321
	32.235000	0.465271
	32.240000	0.422518
	32.245000	0.320567
	32.250000	0.360032
	32.255000	0.461982
	32.260000	0.422518
	32.265000	0.320567
	32.270000	0.356743
	32.275000	0.468560
	32.280000	0.425806
	32.285000	0.323856
	32.290000	0.363321
	32.295000	0.465271
	32.300000	0.425806
	32.305000	0.317278
	32.310000	0.363321
	32.315000	0.461982
	32.320000	0.419229
	32.325000	0.317278
	32.330000	0.366609
	32.335000	0.465271
	32.340000	0.422518
	32.345000	0.320567
	32.350000	0.356743
	32.355000	0.465271
	32.360000	0.422518
	32.365000	0.317278
	32.370000	0.366609
	32.375000	0.461982
	32.380000	0.422518
	32.385000	0.320567
	32.390000	0.360032
	32.395000	0.465271
	32.400000	0.422518
	32.405000	0.317278
	32.410000	0.360032
	32.415000	0.465271
	32.420000	0.419229
	32.425000	0.317278
	32.430000	0.360032
	32.435000	0.461982
	32.440000	0.422518
	32.445000	0.310701
	32.450000	0.363321
	32.455000	0.461982
	32.460000	0.422518
	32.465000	0.313990
	32.470000	0.356743
	32.475000	0.461982
	32.480000	0.422518
	32.485000	0.320567
	32.490000	0.356743
	32.495000	0.461982
	32.500000	0.419229
	32.505000	0.313990
	32.510000	0.363321
	32.515000	0.461982
	32.520000	0.415940
	32.525000	0.313990
	32.530000	0.360032
	32.535000	0.461982
	32.540000	0.415940
	32.545000	0.310701
	32.550000	0.360032
	32.555000	0.461982
	32.560000	0.415940
	32.565000	0.307412
	32.570000	0.360032
	32.575000	0.461982
	32.580000	0.415940
	32.585000	0.313990
	32.590000	0.360032
	32.595000	0.458694
	32.600000	0.415940
	32.605000	0.310701
	32.610000	0.360032
	32.615000	0.461982
	32.620000	0.415940
	32.625000	0.313990
	32.630000	0.360032
	32.635000	0.465271
	32.640000	0.419229
	32.645000	0.310701
	32.650000	0.356743
	32.655000	0.458694
	32.660000	0.412651
	32.665000	0.310701
	32.670000	0.360032
	32.675000	0.461982
	32.680000	0.412651
	32.685000	0.317278
	32.690000	0.356743
	32.695000	0.465271
	32.700000	0.412651
	32.705000	0.313990
	32.710000	0.360032
	32.715000	0.461982
	32.720000	0.419229
	32.725000	0.313990
	32.730000	0.356743
	32.735000	0.461982
	32.740000	0.415940
	32.745000	0.313990
	32.750000	0.363321
	32.755000	0.458694
	32.760000	0.412651
	32.765000	0.307412
	32.770000	0.360032
	32.775000	0.461982
	32.780000	0.412651
	32.785000	0.317278
	32.790000	0.363321
	32.795000	0.465271
	32.800000	0.409363
	32.805000	0.307412
	32.810000	0.363321
	32.815000	0.465271
	32.820000	0.412651
	32.825000	0.307412
	32.830000	0.363321
	32.835000	0.465271
	32.840000	0.412651
	32.845000	0.310701
	32.850000	0.366609
	32.855000	0.468560
	32.860000	0.412651
	32.865000	0.310701
	32.870000	0.360032
	32.875000	0.468560
	32.880000	0.412651
	32.885000	0.310701
	32.890000	0.363321
	32.895000	0.461982
	32.900000	0.412651
	32.905000	0.307412
	32.910000	0.356743
	32.915000	0.461982
	32.920000	0.415940
	32.925000	0.313990
	32.930000	0.360032
	32.935000	0.458694
	32.940000	0.412651
	32.945000	0.310701
	32.950000	0.363321
	32.955000	0.461982
	32.960000	0.409363
	32.965000	0.310701
	32.970000	0.363321
	32.975000	0.458694
	32.980000	0.409363
	32.985000	0.310701
	32.990000	0.363321
	32.995000	0.465271
	33.000000	0.412651
	33.005000	0.310701
	33.010000	0.366609
	33.015000	0.465271
	33.020000	0.409363
	33.025000	0.310701
	33.030000	0.363321
	33.035000	0.461982
	33.040000	0.406074
	33.045000	0.304124
	33.050000	0.363321
	33.055000	0.461982
	33.060000	0.409363
	33.065000	0.307412
	33.070000	0.360032
	33.075000	0.458694
	33.080000	0.406074
	33.085000	0.310701
	33.090000	0.363321
	33.095000	0.461982
	33.100000	0.406074
	33.105000	0.307412
	33.110000	0.366609
	33.115000	0.461982
	33.120000	0.406074
	33.125000	0.307412
	33.130000	0.366609
	33.135000	0.461982
	33.140000	0.406074
	33.145000	0.304124
	33.150000	0.363321
	33.155000	0.461982
	33.160000	0.406074
	33.165000	0.307412
	33.170000	0.363321
	33.175000	0.461982
	33.180000	0.406074
	33.185000	0.304124
	33.190000	0.363321
	33.195000	0.458694
	33.200000	0.409363
	33.205000	0.307412
	33.210000	0.363321
	33.215000	0.458694
	33.220000	0.406074
	33.225000	0.307412
	33.230000	0.360032
	33.235000	0.461982
	33.240000	0.406074
	33.245000	0.304124
	33.250000	0.366609
	33.255000	0.455405
	33.260000	0.406074
	33.265000	0.304124
	33.270000	0.360032
	33.275000	0.455405
	33.280000	0.396208
	33.285000	0.300835
	33.290000	0.356743
	33.295000	0.452116
	33.300000	0.399496
	33.305000	0.300835
	33.310000	0.356743
	33.315000	0.452116
	33.320000	0.396208
	33.325000	0.297546
	33.330000	0.360032
	33.335000	0.458694
	33.340000	0.396208
	33.345000	0.300835
	33.350000	0.360032
	33.355000	0.452116
	33.360000	0.406074
	33.365000	0.304124
	33.370000	0.363321
	33.375000	0.452116
	33.380000	0.396208
	33.385000	0.300835
	33.390000	0.360032
	33.395000	0.452116
	33.400000	0.399496
	33.405000	0.300835
	33.410000	0.363321
	33.415000	0.458694
	33.420000	0.399496
	33.425000	0.304124
	33.430000	0.363321
	33.435000	0.458694
	33.440000	0.402785
	33.445000	0.304124
	33.450000	0.360032
	33.455000	0.455405
	33.460000	0.399496
	33.465000	0.304124
	33.470000	0.363321
	33.475000	0.458694
	33.480000	0.402785
	33.485000	0.310701
	33.490000	0.363321
	33.495000	0.455405
	33.500000	0.406074
	33.505000	0.307412
	33.510000	0.363321
	33.515000	0.458694
	33.520000	0.402785
	33.525000	0.310701
	33.530000	0.366609
	33.535000	0.458694
	33.540000	0.399496
	33.545000	0.310701
	33.550000	0.369898
	33.555000	0.465271
	33.560000	0.412651
	33.565000	0.320567
	33.570000	0.379764
	33.575000	0.478426
	33.580000	0.422518
	33.585000	0.330433
	33.590000	0.396208
	33.595000	0.491581
	33.600000	0.432384
	33.605000	0.340299
	33.610000	0.392919
	33.615000	0.488292
	33.620000	0.425806
	33.625000	0.333722
	33.630000	0.392919
	33.635000	0.481715
	33.640000	0.425806
	33.645000	0.330433
	33.650000	0.389630
	33.655000	0.478426
	33.660000	0.422518
	33.665000	0.327145
	33.670000	0.386342
	33.675000	0.481715
	33.680000	0.419229
	33.685000	0.323856
	33.690000	0.392919
	33.695000	0.475137
	33.700000	0.415940
	33.705000	0.327145
	33.710000	0.383053
	33.715000	0.471848
	33.720000	0.412651
	33.725000	0.323856
	33.730000	0.379764
	33.735000	0.471848
	33.740000	0.406074
	33.745000	0.320567
	33.750000	0.379764
	33.755000	0.465271
	33.760000	0.409363
	33.765000	0.317278
	33.770000	0.379764
	33.775000	0.468560
	33.780000	0.406074
	33.785000	0.313990
	33.790000	0.383053
	33.795000	0.465271
	33.800000	0.406074
	33.805000	0.313990
	33.810000	0.376475
	33.815000	0.465271
	33.820000	0.402785
	33.825000	0.317278
	33.830000	0.373187
	33.835000	0.458694
	33.840000	0.396208
	33.845000	0.310701
	33.850000	0.366609
	33.855000	0.461982
	33.860000	0.392919
	33.865000	0.304124
	33.870000	0.366609
	33.875000	0.458694
	33.880000	0.392919
	33.885000	0.300835
	33.890000	0.369898
	33.895000	0.455405
	33.900000	0.389630
	33.905000	0.304124
	33.910000	0.363321
	33.915000	0.455405
	33.920000	0.392919
	33.925000	0.300835
	33.930000	0.366609
	33.935000	0.448827
	33.940000	0.392919
	33.945000	0.300835
	33.950000	0.366609
	33.955000	0.452116
	33.960000	0.389630
	33.965000	0.300835
	33.970000	0.366609
	33.975000	0.455405
	33.980000	0.386342
	33.985000	0.297546
	33.990000	0.366609
	33.995000	0.455405
	34.000000	0.389630
	34.005000	0.300835
	34.010000	0.366609
	34.015000	0.452116
	34.020000	0.389630
	34.025000	0.300835
	34.030000	0.366609
	34.035000	0.455405
	34.040000	0.386342
	34.045000	0.294257
	34.050000	0.366609
	34.055000	0.452116
	34.060000	0.383053
	34.065000	0.294257
	34.070000	0.363321
	34.075000	0.448827
	34.080000	0.383053
	34.085000	0.294257
	34.090000	0.363321
	34.095000	0.448827
	34.100000	0.386342
	34.105000	0.294257
	34.110000	0.363321
	34.115000	0.448827
	34.120000	0.383053
	34.125000	0.290969
	34.130000	0.363321
	34.135000	0.448827
	34.140000	0.379764
	34.145000	0.290969
	34.150000	0.360032
	34.155000	0.448827
	34.160000	0.379764
	34.165000	0.287680
	34.170000	0.360032
	34.175000	0.448827
	34.180000	0.383053
	34.185000	0.294257
	34.190000	0.366609
	34.195000	0.448827
	34.200000	0.376475
	34.205000	0.294257
	34.210000	0.366609
	34.215000	0.448827
	34.220000	0.379764
	34.225000	0.294257
	34.230000	0.363321
	34.235000	0.452116
	34.240000	0.379764
	34.245000	0.297546
	34.250000	0.366609
	34.255000	0.448827
	34.260000	0.383053
	34.265000	0.294257
	34.270000	0.366609
	34.275000	0.448827
	34.280000	0.383053
	34.285000	0.290969
	34.290000	0.366609
	34.295000	0.448827
	34.300000	0.376475
	34.305000	0.290969
	34.310000	0.363321
	34.315000	0.452116
	34.320000	0.379764
	34.325000	0.290969
	34.330000	0.366609
	34.335000	0.445539
	34.340000	0.379764
	34.345000	0.290969
	34.350000	0.363321
	34.355000	0.452116
	34.360000	0.379764
	34.365000	0.294257
	34.370000	0.366609
	34.375000	0.452116
	34.380000	0.379764
	34.385000	0.290969
	34.390000	0.366609
	34.395000	0.448827
	34.400000	0.376475
	34.405000	0.290969
	34.410000	0.363321
	34.415000	0.452116
	34.420000	0.376475
	34.425000	0.294257
	34.430000	0.363321
	34.435000	0.448827
	34.440000	0.376475
	34.445000	0.290969
	34.450000	0.363321
	34.455000	0.448827
	34.460000	0.376475
	34.465000	0.297546
	34.470000	0.363321
	34.475000	0.452116
	34.480000	0.373187
	34.485000	0.287680
	34.490000	0.366609
	34.495000	0.448827
	34.500000	0.373187
	34.505000	0.287680
	34.510000	0.366609
	34.515000	0.448827
	34.520000	0.373187
	34.525000	0.290969
	34.530000	0.363321
	34.535000	0.452116
	34.540000	0.369898
	34.545000	0.290969
	34.550000	0.363321
	34.555000	0.445539
	34.560000	0.373187
	34.565000	0.290969
	34.570000	0.363321
	34.575000	0.448827
	34.580000	0.376475
	34.585000	0.290969
	34.590000	0.366609
	34.595000	0.445539
	34.600000	0.376475
	34.605000	0.287680
	34.610000	0.366609
	34.615000	0.445539
	34.620000	0.369898
	34.625000	0.290969
	34.630000	0.363321
	34.635000	0.452116
	34.640000	0.369898
	34.645000	0.287680
	34.650000	0.360032
	34.655000	0.445539
	34.660000	0.369898
	34.665000	0.287680
	34.670000	0.360032
	34.675000	0.445539
	34.680000	0.373187
	34.685000	0.287680
	34.690000	0.366609
	34.695000	0.445539
	34.700000	0.373187
	34.705000	0.287680
	34.710000	0.363321
	34.715000	0.442250
	34.720000	0.366609
	34.725000	0.287680
	34.730000	0.363321
	34.735000	0.445539
	34.740000	0.366609
	34.745000	0.287680
	34.750000	0.366609
	34.755000	0.445539
	34.760000	0.363321
	34.765000	0.284391
	34.770000	0.369898
	34.775000	0.445539
	34.780000	0.373187
	34.785000	0.287680
	34.790000	0.363321
	34.795000	0.442250
	34.800000	0.366609
	34.805000	0.284391
	34.810000	0.363321
	34.815000	0.445539
	34.820000	0.366609
	34.825000	0.287680
	34.830000	0.363321
	34.835000	0.452116
	34.840000	0.366609
	34.845000	0.287680
	34.850000	0.366609
	34.855000	0.448827
	34.860000	0.366609
	34.865000	0.284391
	34.870000	0.369898
	34.875000	0.452116
	34.880000	0.366609
	34.885000	0.287680
	34.890000	0.369898
	34.895000	0.445539
	34.900000	0.369898
	34.905000	0.284391
	34.910000	0.363321
	34.915000	0.445539
	34.920000	0.363321
	34.925000	0.284391
	34.930000	0.369898
	34.935000	0.448827
	34.940000	0.366609
	34.945000	0.284391
	34.950000	0.366609
	34.955000	0.448827
	34.960000	0.369898
	34.965000	0.287680
	34.970000	0.366609
	34.975000	0.445539
	34.980000	0.363321
	34.985000	0.284391
	34.990000	0.366609
	34.995000	0.442250
	35.000000	0.360032
	35.005000	0.284391
	35.010000	0.369898
	35.015000	0.448827
	35.020000	0.360032
	35.025000	0.287680
	35.030000	0.360032
	35.035000	0.438961
	35.040000	0.363321
	35.045000	0.284391
	35.050000	0.366609
	35.055000	0.445539
	35.060000	0.363321
	35.065000	0.284391
	35.070000	0.366609
	35.075000	0.442250
	35.080000	0.363321
	35.085000	0.287680
	35.090000	0.363321
	35.095000	0.445539
	35.100000	0.356743
	35.105000	0.287680
	35.110000	0.366609
	35.115000	0.445539
	35.120000	0.360032
	35.125000	0.284391
	35.130000	0.369898
	35.135000	0.442250
	35.140000	0.363321
	35.145000	0.284391
	35.150000	0.363321
	35.155000	0.442250
	35.160000	0.363321
	35.165000	0.281102
	35.170000	0.363321
	35.175000	0.445539
	35.180000	0.363321
	35.185000	0.284391
	35.190000	0.366609
	35.195000	0.445539
	35.200000	0.360032
	35.205000	0.281102
	35.210000	0.366609
	35.215000	0.438961
	35.220000	0.356743
	35.225000	0.284391
	35.230000	0.366609
	35.235000	0.442250
	35.240000	0.356743
	35.245000	0.281102
	35.250000	0.366609
	35.255000	0.438961
	35.260000	0.356743
	35.265000	0.284391
	35.270000	0.363321
	35.275000	0.438961
	35.280000	0.353454
	35.285000	0.281102
	35.290000	0.360032
	35.295000	0.438961
	35.300000	0.350166
	35.305000	0.281102
	35.310000	0.363321
	35.315000	0.432384
	35.320000	0.346877
	35.325000	0.274525
	35.330000	0.356743
	35.335000	0.432384
	35.340000	0.346877
	35.345000	0.277814
	35.350000	0.356743
	35.355000	0.435672
	35.360000	0.346877
	35.365000	0.274525
	35.370000	0.360032
	35.375000	0.435672
	35.380000	0.353454
	35.385000	0.274525
	35.390000	0.356743
	35.395000	0.432384
	35.400000	0.350166
	35.405000	0.274525
	35.410000	0.360032
	35.415000	0.435672
	35.420000	0.346877
	35.425000	0.274525
	35.430000	0.360032
	35.435000	0.432384
	35.440000	0.353454
	35.445000	0.274525
	35.450000	0.363321
	35.455000	0.432384
	35.460000	0.350166
	35.465000	0.281102
	35.470000	0.363321
	35.475000	0.432384
	35.480000	0.350166
	35.485000	0.281102
	35.490000	0.363321
	35.495000	0.438961
	35.500000	0.353454
	35.505000	0.281102
	35.510000	0.366609
	35.515000	0.435672
	35.520000	0.353454
	35.525000	0.277814
	35.530000	0.366609
	35.535000	0.435672
	35.540000	0.353454
	35.545000	0.281102
	35.550000	0.363321
	35.555000	0.435672
	35.560000	0.356743
	35.565000	0.281102
	35.570000	0.366609
	35.575000	0.442250
	35.580000	0.366609
	35.585000	0.294257
	35.590000	0.383053
	35.595000	0.455405
	35.600000	0.369898
	35.605000	0.304124
	35.610000	0.389630
	35.615000	0.461982
	35.620000	0.369898
	35.625000	0.300835
	35.630000	0.389630
	35.635000	0.458694
	35.640000	0.369898
	35.645000	0.300835
	35.650000	0.386342
	35.655000	0.458694
	35.660000	0.369898
	35.665000	0.297546
	35.670000	0.383053
	35.675000	0.452116
	35.680000	0.366609
	35.685000	0.294257
	35.690000	0.379764
	35.695000	0.448827
	35.700000	0.360032
	35.705000	0.294257
	35.710000	0.379764
	35.715000	0.448827
	35.720000	0.356743
	35.725000	0.290969
	35.730000	0.376475
	35.735000	0.445539
	35.740000	0.356743
	35.745000	0.287680
	35.750000	0.376475
	35.755000	0.438961
	35.760000	0.353454
	35.765000	0.290969
	35.770000	0.373187
	35.775000	0.442250
	35.780000	0.356743
	35.785000	0.287680
	35.790000	0.373187
	35.795000	0.438961
	35.800000	0.350166
	35.805000	0.287680
	35.810000	0.376475
	35.815000	0.442250
	35.820000	0.356743
	35.825000	0.284391
	35.830000	0.373187
	35.835000	0.438961
	35.840000	0.353454
	35.845000	0.281102
	35.850000	0.369898
	35.855000	0.435672
	35.860000	0.350166
	35.865000	0.281102
	35.870000	0.369898
	35.875000	0.429095
	35.880000	0.350166
	35.885000	0.281102
	35.890000	0.366609
	35.895000	0.432384
	35.900000	0.343588
	35.905000	0.277814
	35.910000	0.366609
	35.915000	0.432384
	35.920000	0.340299
	35.925000	0.274525
	35.930000	0.369898
	35.935000	0.432384
	35.940000	0.343588
	35.945000	0.274525
	35.950000	0.366609
	35.955000	0.435672
	35.960000	0.343588
	35.965000	0.281102
	35.970000	0.363321
	35.975000	0.429095
	35.980000	0.346877
	35.985000	0.277814
	35.990000	0.369898
	35.995000	0.432384
	36.000000	0.343588
	36.005000	0.274525
	36.010000	0.366609
	36.015000	0.432384
	36.020000	0.340299
	36.025000	0.277814
	36.030000	0.363321
	36.035000	0.429095
	36.040000	0.340299
	36.045000	0.274525
	36.050000	0.363321
	36.055000	0.435672
	36.060000	0.333722
	36.065000	0.274525
	36.070000	0.366609
	36.075000	0.425806
	36.080000	0.340299
	36.085000	0.274525
	36.090000	0.363321
	36.095000	0.432384
	36.100000	0.333722
	36.105000	0.271236
	36.110000	0.366609
	36.115000	0.429095
	36.120000	0.337011
	36.125000	0.274525
	36.130000	0.360032
	36.135000	0.432384
	36.140000	0.337011
	36.145000	0.277814
	36.150000	0.363321
	36.155000	0.425806
	36.160000	0.330433
	36.165000	0.264659
	36.170000	0.360032
	36.175000	0.432384
	36.180000	0.337011
	36.185000	0.267948
	36.190000	0.366609
	36.195000	0.425806
	36.200000	0.333722
	36.205000	0.271236
	36.210000	0.363321
	36.215000	0.422518
	36.220000	0.337011
	36.225000	0.267948
	36.230000	0.366609
	36.235000	0.425806
	36.240000	0.337011
	36.245000	0.267948
	36.250000	0.360032
	36.255000	0.425806
	36.260000	0.330433
	36.265000	0.274525
	36.270000	0.360032
	36.275000	0.425806
	36.280000	0.333722
	36.285000	0.267948
	36.290000	0.366609
	36.295000	0.425806
	36.300000	0.330433
	36.305000	0.271236
	36.310000	0.366609
	36.315000	0.422518
	36.320000	0.333722
	36.325000	0.271236
	36.330000	0.360032
	36.335000	0.425806
	36.340000	0.330433
	36.345000	0.264659
	36.350000	0.363321
	36.355000	0.429095
	36.360000	0.333722
	36.365000	0.267948
	36.370000	0.366609
	36.375000	0.422518
	36.380000	0.330433
	36.385000	0.267948
	36.390000	0.363321
	36.395000	0.425806
	36.400000	0.327145
	36.405000	0.267948
	36.410000	0.363321
	36.415000	0.425806
	36.420000	0.330433
	36.425000	0.271236
	36.430000	0.363321
	36.435000	0.429095
	36.440000	0.330433
	36.445000	0.264659
	36.450000	0.369898
	36.455000	0.422518
	36.460000	0.330433
	36.465000	0.267948
	36.470000	0.366609
	36.475000	0.422518
	36.480000	0.330433
	36.485000	0.271236
	36.490000	0.366609
	36.495000	0.425806
	36.500000	0.327145
	36.505000	0.267948
	36.510000	0.366609
	36.515000	0.425806
	36.520000	0.330433
	36.525000	0.271236
	36.530000	0.366609
	36.535000	0.422518
	36.540000	0.330433
	36.545000	0.264659
	36.550000	0.369898
	36.555000	0.425806
	36.560000	0.327145
	36.565000	0.271236
	36.570000	0.366609
	36.575000	0.422518
	36.580000	0.330433
	36.585000	0.267948
	36.590000	0.366609
	36.595000	0.425806
	36.600000	0.327145
	36.605000	0.271236
	36.610000	0.366609
	36.615000	0.425806
	36.620000	0.327145
	36.625000	0.267948
	36.630000	0.363321
	36.635000	0.422518
	36.640000	0.327145
	36.645000	0.264659
	36.650000	0.366609
	36.655000	0.422518
	36.660000	0.327145
	36.665000	0.267948
	36.670000	0.369898
	36.675000	0.422518
	36.680000	0.323856
	36.685000	0.267948
	36.690000	0.369898
	36.695000	0.422518
	36.700000	0.327145
	36.705000	0.267948
	36.710000	0.366609
	36.715000	0.425806
	36.720000	0.327145
	36.725000	0.264659
	36.730000	0.366609
	36.735000	0.419229
	36.740000	0.327145
	36.745000	0.271236
	36.750000	0.366609
	36.755000	0.425806
	36.760000	0.330433
	36.765000	0.264659
	36.770000	0.366609
	36.775000	0.429095
	36.780000	0.327145
	36.785000	0.271236
	36.790000	0.366609
	36.795000	0.419229
	36.800000	0.327145
	36.805000	0.261370
	36.810000	0.366609
	36.815000	0.419229
	36.820000	0.323856
	36.825000	0.267948
	36.830000	0.363321
	36.835000	0.419229
	36.840000	0.323856
	36.845000	0.267948
	36.850000	0.366609
	36.855000	0.419229
	36.860000	0.320567
	36.865000	0.267948
	36.870000	0.366609
	36.875000	0.419229
	36.880000	0.323856
	36.885000	0.267948
	36.890000	0.366609
	36.895000	0.422518
	36.900000	0.323856
	36.905000	0.267948
	36.910000	0.363321
	36.915000	0.422518
	36.920000	0.323856
	36.925000	0.271236
	36.930000	0.366609
	36.935000	0.422518
	36.940000	0.327145
	36.945000	0.267948
	36.950000	0.366609
	36.955000	0.422518
	36.960000	0.320567
	36.965000	0.264659
	36.970000	0.366609
	36.975000	0.419229
	36.980000	0.327145
	36.985000	0.267948
	36.990000	0.369898
	36.995000	0.422518
	37.000000	0.317278
	37.005000	0.271236
	37.010000	0.369898
	37.015000	0.422518
	37.020000	0.323856
	37.025000	0.271236
	37.030000	0.369898
	37.035000	0.425806
	37.040000	0.327145
	37.045000	0.271236
	37.050000	0.373187
	37.055000	0.425806
	37.060000	0.327145
	37.065000	0.267948
	37.070000	0.373187
	37.075000	0.425806
	37.080000	0.327145
	37.085000	0.274525
	37.090000	0.369898
	37.095000	0.429095
	37.100000	0.317278
	37.105000	0.271236
	37.110000	0.369898
	37.115000	0.422518
	37.120000	0.320567
	37.125000	0.271236
	37.130000	0.363321
	37.135000	0.419229
	37.140000	0.320567
	37.145000	0.267948
	37.150000	0.366609
	37.155000	0.422518
	37.160000	0.317278
	37.165000	0.267948
	37.170000	0.366609
	37.175000	0.419229
	37.180000	0.317278
	37.185000	0.264659
	37.190000	0.363321
	37.195000	0.419229
	37.200000	0.317278
	37.205000	0.261370
	37.210000	0.363321
	37.215000	0.412651
	37.220000	0.313990
	37.225000	0.264659
	37.230000	0.363321
	37.235000	0.415940
	37.240000	0.317278
	37.245000	0.264659
	37.250000	0.366609
	37.255000	0.415940
	37.260000	0.313990
	37.265000	0.264659
	37.270000	0.366609
	37.275000	0.415940
	37.280000	0.323856
	37.285000	0.267948
	37.290000	0.369898
	37.295000	0.415940
	37.300000	0.317278
	37.305000	0.267948
	37.310000	0.369898
	37.315000	0.415940
	37.320000	0.320567
	37.325000	0.274525
	37.330000	0.369898
	37.335000	0.419229
	37.340000	0.320567
	37.345000	0.267948
	37.350000	0.369898
	37.355000	0.419229
	37.360000	0.320567
	37.365000	0.271236
	37.370000	0.369898
	37.375000	0.419229
	37.380000	0.320567
	37.385000	0.274525
	37.390000	0.373187
	37.395000	0.419229
	37.400000	0.320567
	37.405000	0.267948
	37.410000	0.373187
	37.415000	0.419229
	37.420000	0.320567
	37.425000	0.271236
	37.430000	0.366609
	37.435000	0.415940
	37.440000	0.323856
	37.445000	0.271236
	37.450000	0.369898
	37.455000	0.419229
	37.460000	0.323856
	37.465000	0.281102
	37.470000	0.379764
	37.475000	0.432384
	37.480000	0.333722
	37.485000	0.290969
	37.490000	0.392919
	37.495000	0.438961
	37.500000	0.350166
	37.505000	0.300835
	37.510000	0.406074
	37.515000	0.448827
	37.520000	0.343588
	37.525000	0.300835
	37.530000	0.392919
	37.535000	0.442250
	37.540000	0.340299
	37.545000	0.290969
	37.550000	0.386342
	37.555000	0.435672
	37.560000	0.340299
	37.565000	0.287680
	37.570000	0.383053
	37.575000	0.429095
	37.580000	0.333722
	37.585000	0.281102
	37.590000	0.376475
	37.595000	0.425806
	37.600000	0.327145
	37.605000	0.281102
	37.610000	0.376475
	37.615000	0.429095
	37.620000	0.320567
	37.625000	0.277814
	37.630000	0.376475
	37.635000	0.422518
	37.640000	0.320567
	37.645000	0.271236
	37.650000	0.373187
	37.655000	0.419229
	37.660000	0.317278
	37.665000	0.274525
	37.670000	0.369898
	37.675000	0.419229
	37.680000	0.313990
	37.685000	0.277814
	37.690000	0.373187
	37.695000	0.419229
	37.700000	0.313990
	37.705000	0.277814
	37.710000	0.369898
	37.715000	0.415940
	37.720000	0.313990
	37.725000	0.274525
	37.730000	0.369898
	37.735000	0.415940
	37.740000	0.317278
	37.745000	0.267948
	37.750000	0.369898
	37.755000	0.415940
	37.760000	0.313990
	37.765000	0.267948
	37.770000	0.369898
	37.775000	0.409363
	37.780000	0.310701
	37.785000	0.267948
	37.790000	0.366609
	37.795000	0.412651
	37.800000	0.310701
	37.805000	0.264659
	37.810000	0.369898
	37.815000	0.412651
	37.820000	0.310701
	37.825000	0.264659
	37.830000	0.366609
	37.835000	0.409363
	37.840000	0.307412
	37.845000	0.264659
	37.850000	0.369898
	37.855000	0.409363
	37.860000	0.307412
	37.865000	0.264659
	37.870000	0.366609
	37.875000	0.409363
	37.880000	0.304124
	37.885000	0.261370
	37.890000	0.366609
	37.895000	0.409363
	37.900000	0.304124
	37.905000	0.264659
	37.910000	0.366609
	37.915000	0.409363
	37.920000	0.304124
	37.925000	0.264659
	37.930000	0.363321
	37.935000	0.406074
	37.940000	0.307412
	37.945000	0.261370
	37.950000	0.369898
	37.955000	0.402785
	37.960000	0.304124
	37.965000	0.264659
	37.970000	0.366609
	37.975000	0.409363
	37.980000	0.304124
	37.985000	0.261370
	37.990000	0.363321
	37.995000	0.409363
	38.000000	0.304124
	38.005000	0.261370
	38.010000	0.363321
	38.015000	0.409363
	38.020000	0.300835
	38.025000	0.261370
	38.030000	0.366609
	38.035000	0.406074
	38.040000	0.300835
	38.045000	0.261370
	38.050000	0.363321
	38.055000	0.406074
	38.060000	0.300835
	38.065000	0.261370
	38.070000	0.366609
	38.075000	0.409363
	38.080000	0.300835
	38.085000	0.261370
	38.090000	0.369898
	38.095000	0.409363
	38.100000	0.304124
	38.105000	0.261370
	38.110000	0.360032
	38.115000	0.406074
	38.120000	0.300835
	38.125000	0.258081
	38.130000	0.366609
	38.135000	0.406074
	38.140000	0.300835
	38.145000	0.261370
	38.150000	0.363321
	38.155000	0.406074
	38.160000	0.300835
	38.165000	0.258081
	38.170000	0.366609
	38.175000	0.409363
	38.180000	0.307412
	38.185000	0.258081
	38.190000	0.366609
	38.195000	0.406074
	38.200000	0.300835
	38.205000	0.258081
	38.210000	0.366609
	38.215000	0.406074
	38.220000	0.297546
	38.225000	0.261370
	38.230000	0.360032
	38.235000	0.402785
	38.240000	0.297546
	38.245000	0.261370
	38.250000	0.366609
	38.255000	0.406074
	38.260000	0.300835
	38.265000	0.261370
	38.270000	0.360032
	38.275000	0.406074
	38.280000	0.294257
	38.285000	0.258081
	38.290000	0.369898
	38.295000	0.409363
	38.300000	0.297546
	38.305000	0.258081
	38.310000	0.366609
	38.315000	0.406074
	38.320000	0.297546
	38.325000	0.261370
	38.330000	0.363321
	38.335000	0.402785
	38.340000	0.300835
	38.345000	0.258081
	38.350000	0.366609
	38.355000	0.399496
	38.360000	0.297546
	38.365000	0.258081
	38.370000	0.366609
	38.375000	0.402785
	38.380000	0.294257
	38.385000	0.258081
	38.390000	0.363321
	38.395000	0.402785
	38.400000	0.294257
	38.405000	0.254793
	38.410000	0.366609
	38.415000	0.402785
	38.420000	0.290969
	38.425000	0.261370
	38.430000	0.366609
	38.435000	0.402785
	38.440000	0.297546
	38.445000	0.254793
	38.450000	0.366609
	38.455000	0.402785
	38.460000	0.294257
	38.465000	0.258081
	38.470000	0.363321
	38.475000	0.402785
	38.480000	0.297546
	38.485000	0.254793
	38.490000	0.366609
	38.495000	0.399496
	38.500000	0.294257
	38.505000	0.261370
	38.510000	0.366609
	38.515000	0.402785
	38.520000	0.294257
	38.525000	0.258081
	38.530000	0.366609
	38.535000	0.402785
	38.540000	0.290969
	38.545000	0.258081
	38.550000	0.366609
	38.555000	0.399496
	38.560000	0.294257
	38.565000	0.258081
	38.570000	0.366609
	38.575000	0.402785
	38.580000	0.294257
	38.585000	0.258081
	38.590000	0.363321
	38.595000	0.399496
	38.600000	0.290969
	38.605000	0.261370
	38.610000	0.363321
	38.615000	0.402785
	38.620000	0.294257
	38.625000	0.258081
	38.630000	0.363321
	38.635000	0.399496
	38.640000	0.290969
	38.645000	0.258081
	38.650000	0.366609
	38.655000	0.402785
	38.660000	0.290969
	38.665000	0.261370
	38.670000	0.366609
	38.675000	0.406074
	38.680000	0.290969
	38.685000	0.261370
	38.690000	0.363321
	38.695000	0.396208
	38.700000	0.294257
	38.705000	0.261370
	38.710000	0.366609
	38.715000	0.399496
	38.720000	0.287680
	38.725000	0.251504
	38.730000	0.363321
	38.735000	0.406074
	38.740000	0.290969
	38.745000	0.254793
	38.750000	0.366609
	38.755000	0.396208
	38.760000	0.290969
	38.765000	0.261370
	38.770000	0.366609
	38.775000	0.399496
	38.780000	0.290969
	38.785000	0.258081
	38.790000	0.366609
	38.795000	0.402785
	38.800000	0.290969
	38.805000	0.258081
	38.810000	0.369898
	38.815000	0.399496
	38.820000	0.290969
	38.825000	0.261370
	38.830000	0.366609
	38.835000	0.402785
	38.840000	0.290969
	38.845000	0.261370
	38.850000	0.366609
	38.855000	0.399496
	38.860000	0.290969
	38.865000	0.258081
	38.870000	0.363321
	38.875000	0.399496
	38.880000	0.290969
	38.885000	0.254793
	38.890000	0.363321
	38.895000	0.396208
	38.900000	0.284391
	38.905000	0.251504
	38.910000	0.366609
	38.915000	0.389630
	38.920000	0.284391
	38.925000	0.258081
	38.930000	0.360032
	38.935000	0.396208
	38.940000	0.281102
	38.945000	0.254793
	38.950000	0.360032
	38.955000	0.392919
	38.960000	0.284391
	38.965000	0.254793
	38.970000	0.363321
	38.975000	0.392919
	38.980000	0.287680
	38.985000	0.254793
	38.990000	0.360032
	38.995000	0.392919
	39.000000	0.287680
	39.005000	0.258081
	39.010000	0.363321
	39.015000	0.396208
	39.020000	0.287680
	39.025000	0.261370
	39.030000	0.363321
	39.035000	0.396208
	39.040000	0.287680
	39.045000	0.254793
	39.050000	0.366609
	39.055000	0.392919
	39.060000	0.287680
	39.065000	0.261370
	39.070000	0.366609
	39.075000	0.402785
	39.080000	0.290969
	39.085000	0.261370
	39.090000	0.360032
	39.095000	0.392919
	39.100000	0.287680
	39.105000	0.258081
	39.110000	0.369898
	39.115000	0.392919
	39.120000	0.290969
	39.125000	0.261370
	39.130000	0.363321
	39.135000	0.392919
	39.140000	0.290969
	39.145000	0.261370
	39.150000	0.366609
	39.155000	0.392919
	39.160000	0.290969
	39.165000	0.261370
	39.170000	0.366609
	39.175000	0.402785
	39.180000	0.294257
	39.185000	0.267948
	39.190000	0.379764
	39.195000	0.409363
	39.200000	0.307412
	39.205000	0.284391
	39.210000	0.389630
	39.215000	0.415940
	39.220000	0.310701
	39.225000	0.284391
	39.230000	0.386342
	39.235000	0.412651
	39.240000	0.307412
	39.245000	0.284391
	39.250000	0.383053
	39.255000	0.412651
	39.260000	0.304124
	39.265000	0.274525
	39.270000	0.376475
	39.275000	0.409363
	39.280000	0.297546
	39.285000	0.274525
	39.290000	0.376475
	39.295000	0.402785
	39.300000	0.300835
	39.305000	0.271236
	39.310000	0.373187
	39.315000	0.402785
	39.320000	0.290969
	39.325000	0.274525
	39.330000	0.373187
	39.335000	0.399496
	39.340000	0.290969
	39.345000	0.264659
	39.350000	0.369898
	39.355000	0.396208
	39.360000	0.287680
	39.365000	0.261370
	39.370000	0.373187
	39.375000	0.392919
	39.380000	0.290969
	39.385000	0.261370
	39.390000	0.369898
	39.395000	0.396208
	39.400000	0.287680
	39.405000	0.261370
	39.410000	0.369898
	39.415000	0.392919
	39.420000	0.287680
	39.425000	0.264659
	39.430000	0.366609
	39.435000	0.392919
	39.440000	0.281102
	39.445000	0.254793
	39.450000	0.366609
	39.455000	0.392919
	39.460000	0.284391
	39.465000	0.254793
	39.470000	0.363321
	39.475000	0.389630
	39.480000	0.281102
	39.485000	0.254793
	39.490000	0.366609
	39.495000	0.386342
	39.500000	0.277814
	39.505000	0.254793
	39.510000	0.363321
	39.515000	0.386342
	39.520000	0.284391
	39.525000	0.258081
	39.530000	0.360032
	39.535000	0.392919
	39.540000	0.277814
	39.545000	0.254793
	39.550000	0.363321
	39.555000	0.386342
	39.560000	0.274525
	39.565000	0.258081
	39.570000	0.360032
	39.575000	0.389630
	39.580000	0.277814
	39.585000	0.248215
	39.590000	0.366609
	39.595000	0.383053
	39.600000	0.281102
	39.605000	0.251504
	39.610000	0.363321
	39.615000	0.383053
	39.620000	0.277814
	39.625000	0.254793
	39.630000	0.366609
	39.635000	0.383053
	39.640000	0.274525
	39.645000	0.254793
	39.650000	0.363321
	39.655000	0.386342
	39.660000	0.274525
	39.665000	0.254793
	39.670000	0.360032
	39.675000	0.383053
	39.680000	0.274525
	39.685000	0.254793
	39.690000	0.360032
	39.695000	0.386342
	39.700000	0.274525
	39.705000	0.251504
	39.710000	0.363321
	39.715000	0.383053
	39.720000	0.271236
	39.725000	0.251504
	39.730000	0.360032
	39.735000	0.383053
	39.740000	0.274525
	39.745000	0.251504
	39.750000	0.360032
	39.755000	0.383053
	39.760000	0.274525
	39.765000	0.248215
	39.770000	0.363321
	39.775000	0.379764
	39.780000	0.271236
	39.785000	0.254793
	39.790000	0.363321
	39.795000	0.376475
	39.800000	0.271236
	39.805000	0.251504
	39.810000	0.360032
	39.815000	0.379764
	39.820000	0.271236
	39.825000	0.248215
	39.830000	0.360032
	39.835000	0.379764
	39.840000	0.267948
	39.845000	0.254793
	39.850000	0.360032
	39.855000	0.379764
	39.860000	0.264659
	39.865000	0.251504
	39.870000	0.360032
	39.875000	0.383053
	39.880000	0.271236
	39.885000	0.251504
	39.890000	0.363321
	39.895000	0.379764
	39.900000	0.271236
	39.905000	0.251504
	39.910000	0.360032
	39.915000	0.379764
	39.920000	0.267948
	39.925000	0.251504
	39.930000	0.363321
	39.935000	0.383053
	39.940000	0.267948
	39.945000	0.251504
	39.950000	0.360032
	39.955000	0.379764
	39.960000	0.264659
	39.965000	0.251504
	39.970000	0.363321
	39.975000	0.379764
	39.980000	0.267948
	39.985000	0.248215
	39.990000	0.360032
	39.995000	0.379764
	40.000000	0.261370
	40.005000	0.248215
	40.010000	0.360032
	40.015000	0.379764
	40.020000	0.261370
	40.025000	0.244927
	40.030000	0.360032
	40.035000	0.373187
	40.040000	0.267948
	40.045000	0.251504
	40.050000	0.360032
	40.055000	0.376475
	40.060000	0.264659
	40.065000	0.251504
	40.070000	0.363321
	40.075000	0.376475
	40.080000	0.261370
	40.085000	0.244927
	40.090000	0.360032
	40.095000	0.379764
	40.100000	0.267948
	40.105000	0.248215
	40.110000	0.360032
	40.115000	0.379764
	40.120000	0.267948
	40.125000	0.248215
	40.130000	0.360032
	40.135000	0.373187
	40.140000	0.264659
	40.145000	0.244927
	40.150000	0.360032
	40.155000	0.379764
	40.160000	0.264659
	40.165000	0.248215
	40.170000	0.356743
	40.175000	0.376475
	40.180000	0.264659
	40.185000	0.244927
	40.190000	0.356743
	40.195000	0.373187
	40.200000	0.264659
	40.205000	0.251504
	40.210000	0.360032
	40.215000	0.376475
	40.220000	0.261370
	40.225000	0.244927
	40.230000	0.360032
	40.235000	0.379764
	40.240000	0.261370
	40.245000	0.248215
	40.250000	0.360032
	40.255000	0.376475
	40.260000	0.261370
	40.265000	0.248215
	40.270000	0.360032
	40.275000	0.373187
	40.280000	0.261370
	40.285000	0.248215
	40.290000	0.360032
	40.295000	0.373187
	40.300000	0.258081
	40.305000	0.248215
	40.310000	0.363321
	40.315000	0.376475
	40.320000	0.261370
	40.325000	0.244927
	40.330000	0.363321
	40.335000	0.373187
	40.340000	0.258081
	40.345000	0.251504
	40.350000	0.363321
	40.355000	0.376475
	40.360000	0.261370
	40.365000	0.251504
	40.370000	0.363321
	40.375000	0.376475
	40.380000	0.261370
	40.385000	0.241638
	40.390000	0.360032
	40.395000	0.376475
	40.400000	0.261370
	40.405000	0.254793
	40.410000	0.360032
	40.415000	0.376475
	40.420000	0.261370
	40.425000	0.254793
	40.430000	0.363321
	40.435000	0.373187
	40.440000	0.258081
	40.445000	0.251504
	40.450000	0.366609
	40.455000	0.373187
	40.460000	0.258081
	40.465000	0.251504
	40.470000	0.363321
	40.475000	0.373187
	40.480000	0.261370
	40.485000	0.248215
	40.490000	0.360032
	40.495000	0.376475
	40.500000	0.258081
	40.505000	0.251504
	40.510000	0.360032
	40.515000	0.373187
	40.520000	0.261370
	40.525000	0.251504
	40.530000	0.360032
	40.535000	0.373187
	40.540000	0.258081
	40.545000	0.251504
	40.550000	0.360032
	40.555000	0.376475
	40.560000	0.258081
	40.565000	0.248215
	40.570000	0.363321
	40.575000	0.369898
	40.580000	0.258081
	40.585000	0.251504
	40.590000	0.363321
	40.595000	0.376475
	40.600000	0.258081
	40.605000	0.248215
	40.610000	0.360032
	40.615000	0.373187
	40.620000	0.258081
	40.625000	0.248215
	40.630000	0.360032
	40.635000	0.373187
	40.640000	0.258081
	40.645000	0.251504
	40.650000	0.356743
	40.655000	0.369898
	40.660000	0.261370
	40.665000	0.248215
	40.670000	0.356743
	40.675000	0.369898
	40.680000	0.251504
	40.685000	0.248215
	40.690000	0.356743
	40.695000	0.366609
	40.700000	0.254793
	40.705000	0.241638
	40.710000	0.353454
	40.715000	0.363321
	40.720000	0.251504
	40.725000	0.241638
	40.730000	0.350166
	40.735000	0.360032
	40.740000	0.251504
	40.745000	0.238349
	40.750000	0.350166
	40.755000	0.363321
	40.760000	0.251504
	40.765000	0.241638
	40.770000	0.350166
	40.775000	0.360032
	40.780000	0.248215
	40.785000	0.241638
	40.790000	0.353454
	40.795000	0.363321
	40.800000	0.251504
	40.805000	0.248215
	40.810000	0.360032
	40.815000	0.360032
	40.820000	0.254793
	40.825000	0.244927
	40.830000	0.356743
	40.835000	0.363321
	40.840000	0.254793
	40.845000	0.244927
	40.850000	0.356743
	40.855000	0.366609
	40.860000	0.251504
	40.865000	0.248215
	40.870000	0.356743
	40.875000	0.366609
	40.880000	0.258081
	40.885000	0.251504
	40.890000	0.356743
	40.895000	0.369898
	40.900000	0.254793
	40.905000	0.248215
	40.910000	0.356743
	40.915000	0.366609
	40.920000	0.254793
	40.925000	0.248215
	40.930000	0.360032
	40.935000	0.369898
	40.940000	0.254793
	40.945000	0.244927
	40.950000	0.356743
	40.955000	0.363321
	40.960000	0.248215
	40.965000	0.241638
	40.970000	0.353454
	40.975000	0.363321
	40.980000	0.254793
	40.985000	0.248215
	40.990000	0.353454
	40.995000	0.369898
	41.000000	0.258081
	41.005000	0.251504
	41.010000	0.369898
	41.015000	0.376475
	41.020000	0.261370
	41.025000	0.261370
	41.030000	0.369898
	41.035000	0.373187
	41.040000	0.267948
	41.045000	0.258081
	41.050000	0.369898
	41.055000	0.376475
	41.060000	0.264659
	41.065000	0.258081
	41.070000	0.363321
	41.075000	0.373187
	41.080000	0.258081
	41.085000	0.254793
	41.090000	0.360032
	41.095000	0.369898
	41.100000	0.254793
	41.105000	0.248215
	41.110000	0.356743
	41.115000	0.366609
	41.120000	0.254793
	41.125000	0.251504
	41.130000	0.363321
	41.135000	0.360032
	41.140000	0.251504
	41.145000	0.244927
	41.150000	0.356743
	41.155000	0.356743
	41.160000	0.244927
	41.165000	0.244927
	41.170000	0.353454
	41.175000	0.356743
	41.180000	0.244927
	41.185000	0.244927
	41.190000	0.356743
	41.195000	0.360032
	41.200000	0.248215
	41.205000	0.248215
	41.210000	0.356743
	41.215000	0.363321
	41.220000	0.248215
	41.225000	0.248215
	41.230000	0.356743
	41.235000	0.363321
	41.240000	0.251504
	41.245000	0.248215
	41.250000	0.356743
	41.255000	0.363321
	41.260000	0.248215
	41.265000	0.244927
	41.270000	0.353454
	41.275000	0.360032
	41.280000	0.248215
	41.285000	0.244927
	41.290000	0.356743
	41.295000	0.360032
	41.300000	0.241638
	41.305000	0.241638
	41.310000	0.356743
	41.315000	0.356743
	41.320000	0.241638
	41.325000	0.241638
	41.330000	0.356743
	41.335000	0.356743
	41.340000	0.244927
	41.345000	0.241638
	41.350000	0.356743
	41.355000	0.360032
	41.360000	0.241638
	41.365000	0.241638
	41.370000	0.353454
	41.375000	0.360032
	41.380000	0.244927
	41.385000	0.244927
	41.390000	0.353454
	41.395000	0.360032
	41.400000	0.248215
	41.405000	0.248215
	41.410000	0.356743
	41.415000	0.360032
	41.420000	0.241638
	41.425000	0.244927
	41.430000	0.356743
	41.435000	0.356743
	41.440000	0.241638
	41.445000	0.241638
	41.450000	0.353454
	41.455000	0.360032
	41.460000	0.244927
	41.465000	0.241638
	41.470000	0.353454
	41.475000	0.356743
	41.480000	0.238349
	41.485000	0.248215
	41.490000	0.353454
	41.495000	0.360032
	41.500000	0.235060
	41.505000	0.241638
	41.510000	0.356743
	41.515000	0.356743
	41.520000	0.244927
	41.525000	0.241638
	41.530000	0.356743
	41.535000	0.356743
	41.540000	0.241638
	41.545000	0.244927
	41.550000	0.356743
	41.555000	0.353454
	41.560000	0.238349
	41.565000	0.244927
	41.570000	0.356743
	41.575000	0.360032
	41.580000	0.241638
	41.585000	0.241638
	41.590000	0.356743
	41.595000	0.356743
	41.600000	0.241638
	41.605000	0.244927
	41.610000	0.356743
	41.615000	0.356743
	41.620000	0.241638
	41.625000	0.244927
	41.630000	0.360032
	41.635000	0.353454
	41.640000	0.241638
	41.645000	0.244927
	41.650000	0.356743
	41.655000	0.356743
	41.660000	0.238349
	41.665000	0.241638
	41.670000	0.356743
	41.675000	0.353454
	41.680000	0.241638
	41.685000	0.248215
	41.690000	0.360032
	41.695000	0.356743
	41.700000	0.241638
	41.705000	0.241638
	41.710000	0.353454
	41.715000	0.356743
	41.720000	0.238349
	41.725000	0.248215
	41.730000	0.356743
	41.735000	0.356743
	41.740000	0.238349
	41.745000	0.248215
	41.750000	0.360032
	41.755000	0.356743
	41.760000	0.238349
	41.765000	0.241638
	41.770000	0.360032
	41.775000	0.356743
	41.780000	0.238349
	41.785000	0.241638
	41.790000	0.353454
	41.795000	0.356743
	41.800000	0.241638
	41.805000	0.241638
	41.810000	0.353454
	41.815000	0.356743
	41.820000	0.238349
	41.825000	0.241638
	41.830000	0.353454
	41.835000	0.350166
	41.840000	0.238349
	41.845000	0.241638
	41.850000	0.356743
	41.855000	0.350166
	41.860000	0.238349
	41.865000	0.241638
	41.870000	0.356743
	41.875000	0.353454
	41.880000	0.238349
	41.885000	0.238349
	41.890000	0.356743
	41.895000	0.353454
	41.900000	0.235060
	41.905000	0.244927
	41.910000	0.353454
	41.915000	0.353454
	41.920000	0.238349
	41.925000	0.244927
	41.930000	0.356743
	41.935000	0.353454
	41.940000	0.238349
	41.945000	0.241638
	41.950000	0.353454
	41.955000	0.356743
	41.960000	0.235060
	41.965000	0.241638
	41.970000	0.356743
	41.975000	0.346877
	41.980000	0.238349
	41.985000	0.241638
	41.990000	0.356743
	41.995000	0.353454
	42.000000	0.238349
	42.005000	0.244927
	42.010000	0.356743
	42.015000	0.350166
	42.020000	0.238349
	42.025000	0.241638
	42.030000	0.356743
	42.035000	0.353454
	42.040000	0.238349
	42.045000	0.241638
	42.050000	0.356743
	42.055000	0.353454
	42.060000	0.235060
	42.065000	0.244927
	42.070000	0.356743
	42.075000	0.350166
	42.080000	0.235060
	42.085000	0.241638
	42.090000	0.356743
	42.095000	0.350166
	42.100000	0.235060
	42.105000	0.241638
	42.110000	0.356743
	42.115000	0.353454
	42.120000	0.238349
	42.125000	0.241638
	42.130000	0.356743
	42.135000	0.346877
	42.140000	0.238349
	42.145000	0.244927
	42.150000	0.356743
	42.155000	0.353454
	42.160000	0.238349
	42.165000	0.241638
	42.170000	0.356743
	42.175000	0.350166
	42.180000	0.238349
	42.185000	0.244927
	42.190000	0.353454
	42.195000	0.353454
	42.200000	0.238349
	42.205000	0.244927
	42.210000	0.353454
	42.215000	0.350166
	42.220000	0.238349
	42.225000	0.244927
	42.230000	0.353454
	42.235000	0.346877
	42.240000	0.235060
	42.245000	0.241638
	42.250000	0.356743
	42.255000	0.346877
	42.260000	0.235060
	42.265000	0.244927
	42.270000	0.353454
	42.275000	0.353454
	42.280000	0.238349
	42.285000	0.241638
	42.290000	0.353454
	42.295000	0.350166
	42.300000	0.235060
	42.305000	0.238349
	42.310000	0.356743
	42.315000	0.350166
	42.320000	0.235060
	42.325000	0.241638
	42.330000	0.356743
	42.335000	0.346877
	42.340000	0.235060
	42.345000	0.241638
	42.350000	0.356743
	42.355000	0.353454
	42.360000	0.238349
	42.365000	0.244927
	42.370000	0.356743
	42.375000	0.350166
	42.380000	0.235060
	42.385000	0.241638
	42.390000	0.356743
	42.395000	0.346877
	42.400000	0.235060
	42.405000	0.241638
	42.410000	0.356743
	42.415000	0.346877
	42.420000	0.235060
	42.425000	0.248215
	42.430000	0.353454
	42.435000	0.350166
	42.440000	0.235060
	42.445000	0.241638
	42.450000	0.356743
	42.455000	0.350166
	42.460000	0.235060
	42.465000	0.244927
	42.470000	0.356743
	42.475000	0.343588
	42.480000	0.238349
	42.485000	0.244927
	42.490000	0.353454
	42.495000	0.346877
	42.500000	0.235060
	42.505000	0.241638
	42.510000	0.353454
	42.515000	0.350166
	42.520000	0.235060
	42.525000	0.241638
	42.530000	0.353454
	42.535000	0.350166
	42.540000	0.235060
	42.545000	0.241638
	42.550000	0.353454
	42.555000	0.343588
	42.560000	0.231772
	42.565000	0.244927
	42.570000	0.353454
	42.575000	0.346877
	42.580000	0.231772
	42.585000	0.238349
	42.590000	0.353454
	42.595000	0.343588
	42.600000	0.231772
	42.605000	0.241638
	42.610000	0.353454
	42.615000	0.343588
	42.620000	0.235060
	42.625000	0.241638
	42.630000	0.356743
	42.635000	0.340299
	42.640000	0.231772
	42.645000	0.241638
	42.650000	0.353454
	42.655000	0.343588
	42.660000	0.228483
	42.665000	0.244927
	42.670000	0.353454
	42.675000	0.340299
	42.680000	0.228483
	42.685000	0.241638
	42.690000	0.350166
	42.695000	0.340299
	42.700000	0.225194
	42.705000	0.238349
	42.710000	0.350166
	42.715000	0.337011
	42.720000	0.228483
	42.725000	0.241638
	42.730000	0.350166
	42.735000	0.343588
	42.740000	0.231772
	42.745000	0.238349
	42.750000	0.350166
	42.755000	0.337011
	42.760000	0.228483
	42.765000	0.238349
	42.770000	0.350166
	42.775000	0.343588
	42.780000	0.231772
	42.785000	0.241638
	42.790000	0.346877
	42.795000	0.343588
	42.800000	0.231772
	42.805000	0.244927
	42.810000	0.350166
	42.815000	0.343588
	42.820000	0.231772
	42.825000	0.244927
	42.830000	0.356743
	42.835000	0.340299
	42.840000	0.235060
	42.845000	0.244927
	42.850000	0.353454
	42.855000	0.343588
	42.860000	0.235060
	42.865000	0.248215
	42.870000	0.353454
	42.875000	0.343588
	42.880000	0.235060
	42.885000	0.244927
	42.890000	0.353454
	42.895000	0.343588
	42.900000	0.235060
	42.905000	0.244927
	42.910000	0.356743
	42.915000	0.346877
	42.920000	0.235060
	42.925000	0.248215
	42.930000	0.353454
	42.935000	0.346877
	42.940000	0.238349
	42.945000	0.251504
	42.950000	0.356743
	42.955000	0.346877
	42.960000	0.244927
	42.965000	0.258081
	42.970000	0.366609
	42.975000	0.353454
	42.980000	0.244927
	42.985000	0.261370
	42.990000	0.366609
	42.995000	0.356743
	43.000000	0.244927
	43.005000	0.258081
	43.010000	0.366609
	43.015000	0.353454
	43.020000	0.241638
	43.025000	0.251504
	43.030000	0.366609
	43.035000	0.353454
	43.040000	0.241638
	43.045000	0.248215
	43.050000	0.360032
	43.055000	0.350166
	43.060000	0.238349
	43.065000	0.248215
	43.070000	0.360032
	43.075000	0.346877
	43.080000	0.238349
	43.085000	0.248215
	43.090000	0.366609
	43.095000	0.346877
	43.100000	0.235060
	43.105000	0.248215
	43.110000	0.360032
	43.115000	0.346877
	43.120000	0.231772
	43.125000	0.248215
	43.130000	0.356743
	43.135000	0.343588
	43.140000	0.235060
	43.145000	0.248215
	43.150000	0.356743
	43.155000	0.343588
	43.160000	0.231772
	43.165000	0.244927
	43.170000	0.360032
	43.175000	0.340299
	43.180000	0.228483
	43.185000	0.244927
	43.190000	0.360032
	43.195000	0.340299
	43.200000	0.231772
	43.205000	0.251504
	43.210000	0.353454
	43.215000	0.343588
	43.220000	0.228483
	43.225000	0.244927
	43.230000	0.356743
	43.235000	0.340299
	43.240000	0.228483
	43.245000	0.244927
	43.250000	0.353454
	43.255000	0.337011
	43.260000	0.231772
	43.265000	0.241638
	43.270000	0.350166
	43.275000	0.337011
	43.280000	0.228483
	43.285000	0.241638
	43.290000	0.353454
	43.295000	0.337011
	43.300000	0.225194
	43.305000	0.241638
	43.310000	0.346877
	43.315000	0.340299
	43.320000	0.225194
	43.325000	0.241638
	43.330000	0.346877
	43.335000	0.337011
	43.340000	0.225194
	43.345000	0.244927
	43.350000	0.353454
	43.355000	0.333722
	43.360000	0.231772
	43.365000	0.241638
	43.370000	0.346877
	43.375000	0.340299
	43.380000	0.221905
	43.385000	0.244927
	43.390000	0.346877
	43.395000	0.330433
	43.400000	0.225194
	43.405000	0.241638
	43.410000	0.350166
	43.415000	0.333722
	43.420000	0.225194
	43.425000	0.241638
	43.430000	0.346877
	43.435000	0.337011
	43.440000	0.225194
	43.445000	0.241638
	43.450000	0.350166
	43.455000	0.333722
	43.460000	0.225194
	43.465000	0.238349
	43.470000	0.346877
	43.475000	0.330433
	43.480000	0.221905
	43.485000	0.238349
	43.490000	0.346877
	43.495000	0.333722
	43.500000	0.221905
	43.505000	0.241638
	43.510000	0.350166
	43.515000	0.333722
	43.520000	0.221905
	43.525000	0.238349
	43.530000	0.346877
	43.535000	0.330433
	43.540000	0.221905
	43.545000	0.238349
	43.550000	0.350166
	43.555000	0.330433
	43.560000	0.221905
	43.565000	0.244927
	43.570000	0.346877
	43.575000	0.330433
	43.580000	0.221905
	43.585000	0.238349
	43.590000	0.350166
	43.595000	0.327145
	43.600000	0.218617
	43.605000	0.235060
	43.610000	0.353454
	43.615000	0.333722
	43.620000	0.215328
	43.625000	0.238349
	43.630000	0.350166
	43.635000	0.330433
	43.640000	0.221905
	43.645000	0.235060
	43.650000	0.346877
	43.655000	0.333722
	43.660000	0.218617
	43.665000	0.235060
	43.670000	0.346877
	43.675000	0.333722
	43.680000	0.221905
	43.685000	0.235060
	43.690000	0.343588
	43.695000	0.327145
	43.700000	0.218617
	43.705000	0.235060
	43.710000	0.350166
	43.715000	0.327145
	43.720000	0.215328
	43.725000	0.235060
	43.730000	0.346877
	43.735000	0.327145
	43.740000	0.221905
	43.745000	0.238349
	43.750000	0.343588
	43.755000	0.327145
	43.760000	0.218617
	43.765000	0.235060
	43.770000	0.340299
	43.775000	0.330433
	43.780000	0.218617
	43.785000	0.235060
	43.790000	0.343588
	43.795000	0.327145
	43.800000	0.215328
	43.805000	0.238349
	43.810000	0.346877
	43.815000	0.327145
	43.820000	0.218617
	43.825000	0.235060
	43.830000	0.343588
	43.835000	0.327145
	43.840000	0.218617
	43.845000	0.235060
	43.850000	0.343588
	43.855000	0.327145
	43.860000	0.212039
	43.865000	0.235060
	43.870000	0.343588
	43.875000	0.327145
	43.880000	0.215328
	43.885000	0.235060
	43.890000	0.343588
	43.895000	0.323856
	43.900000	0.215328
	43.905000	0.235060
	43.910000	0.343588
	43.915000	0.320567
	43.920000	0.215328
	43.925000	0.231772
	43.930000	0.346877
	43.935000	0.327145
	43.940000	0.215328
	43.945000	0.235060
	43.950000	0.343588
	43.955000	0.323856
	43.960000	0.212039
	43.965000	0.235060
	43.970000	0.343588
	43.975000	0.323856
	43.980000	0.212039
	43.985000	0.235060
	43.990000	0.340299
	43.995000	0.323856
	44.000000	0.215328
	44.005000	0.231772
	44.010000	0.343588
	44.015000	0.320567
	44.020000	0.208751
	44.025000	0.231772
	44.030000	0.343588
	44.035000	0.327145
	44.040000	0.215328
	44.045000	0.231772
	44.050000	0.343588
	44.055000	0.320567
	44.060000	0.212039
	44.065000	0.231772
	44.070000	0.343588
	44.075000	0.327145
	44.080000	0.208751
	44.085000	0.231772
	44.090000	0.340299
	44.095000	0.323856
	44.100000	0.212039
	44.105000	0.231772
	44.110000	0.346877
	44.115000	0.323856
	44.120000	0.212039
	44.125000	0.235060
	44.130000	0.340299
	44.135000	0.323856
	44.140000	0.208751
	44.145000	0.228483
	44.150000	0.343588
	44.155000	0.320567
	44.160000	0.208751
	44.165000	0.235060
	44.170000	0.346877
	44.175000	0.320567
	44.180000	0.208751
	44.185000	0.228483
	44.190000	0.340299
	44.195000	0.320567
	44.200000	0.208751
	44.205000	0.235060
	44.210000	0.343588
	44.215000	0.320567
	44.220000	0.208751
	44.225000	0.228483
	44.230000	0.340299
	44.235000	0.323856
	44.240000	0.208751
	44.245000	0.231772
	44.250000	0.343588
	44.255000	0.320567
	44.260000	0.208751
	44.265000	0.231772
	44.270000	0.340299
	44.275000	0.323856
	44.280000	0.212039
	44.285000	0.231772
	44.290000	0.340299
	44.295000	0.323856
	44.300000	0.208751
	44.305000	0.228483
	44.310000	0.337011
	44.315000	0.320567
	44.320000	0.205462
	44.325000	0.231772
	44.330000	0.340299
	44.335000	0.320567
	44.340000	0.208751
	44.345000	0.231772
	44.350000	0.340299
	44.355000	0.320567
	44.360000	0.205462
	44.365000	0.231772
	44.370000	0.337011
	44.375000	0.317278
	44.380000	0.208751
	44.385000	0.231772
	44.390000	0.340299
	44.395000	0.323856
	44.400000	0.208751
	44.405000	0.231772
	44.410000	0.340299
	44.415000	0.320567
	44.420000	0.205462
	44.425000	0.228483
	44.430000	0.340299
	44.435000	0.313990
	44.440000	0.208751
	44.445000	0.231772
	44.450000	0.340299
	44.455000	0.313990
	44.460000	0.205462
	44.465000	0.231772
	44.470000	0.340299
	44.475000	0.317278
	44.480000	0.205462
	44.485000	0.228483
	44.490000	0.340299
	44.495000	0.320567
	44.500000	0.205462
	44.505000	0.228483
	44.510000	0.343588
	44.515000	0.317278
	44.520000	0.205462
	44.525000	0.231772
	44.530000	0.343588
	44.535000	0.313990
	44.540000	0.202173
	44.545000	0.235060
	44.550000	0.340299
	44.555000	0.320567
	44.560000	0.208751
	44.565000	0.235060
	44.570000	0.343588
	44.575000	0.317278
	44.580000	0.205462
	44.585000	0.231772
	44.590000	0.343588
	44.595000	0.320567
	44.600000	0.208751
	44.605000	0.228483
	44.610000	0.340299
	44.615000	0.320567
	44.620000	0.208751
	44.625000	0.228483
	44.630000	0.340299
	44.635000	0.313990
	44.640000	0.202173
	44.645000	0.235060
	44.650000	0.340299
	44.655000	0.320567
	44.660000	0.202173
	44.665000	0.228483
	44.670000	0.340299
	44.675000	0.313990
	44.680000	0.208751
	44.685000	0.228483
	44.690000	0.337011
	44.695000	0.313990
	44.700000	0.198884
	44.705000	0.225194
	44.710000	0.337011
	44.715000	0.313990
	44.720000	0.205462
	44.725000	0.231772
	44.730000	0.340299
	44.735000	0.313990
	44.740000	0.208751
	44.745000	0.228483
	44.750000	0.340299
	44.755000	0.313990
	44.760000	0.205462
	44.765000	0.228483
	44.770000	0.337011
	44.775000	0.310701
	44.780000	0.205462
	44.785000	0.228483
	44.790000	0.340299
	44.795000	0.313990
	44.800000	0.205462
	44.805000	0.228483
	44.810000	0.340299
	44.815000	0.313990
	44.820000	0.208751
	44.825000	0.228483
	44.830000	0.337011
	44.835000	0.310701
	44.840000	0.202173
	44.845000	0.228483
	44.850000	0.337011
	44.855000	0.320567
	44.860000	0.205462
	44.865000	0.235060
	44.870000	0.340299
	44.875000	0.313990
	44.880000	0.208751
	44.885000	0.238349
	44.890000	0.333722
	44.895000	0.313990
	44.900000	0.208751
	44.905000	0.235060
	44.910000	0.337011
	44.915000	0.317278
	44.920000	0.208751
	44.925000	0.231772
	44.930000	0.340299
	44.935000	0.317278
	44.940000	0.215328
	44.945000	0.238349
	44.950000	0.346877
	44.955000	0.323856
	44.960000	0.215328
	44.965000	0.248215
	44.970000	0.350166
	44.975000	0.330433
	44.980000	0.225194
	44.985000	0.248215
	44.990000	0.356743
	44.995000	0.333722
	45.000000	0.225194
	45.005000	0.251504
	45.010000	0.350166
	45.015000	0.330433
	45.020000	0.225194
	45.025000	0.248215
	45.030000	0.350166
	45.035000	0.327145
	45.040000	0.221905
	45.045000	0.241638
	45.050000	0.350166
	45.055000	0.330433
	45.060000	0.215328
	45.065000	0.238349
	45.070000	0.346877
	45.075000	0.327145
	45.080000	0.212039
	45.085000	0.241638
	45.090000	0.343588
	45.095000	0.320567
	45.100000	0.212039
	45.105000	0.238349
	45.110000	0.343588
	45.115000	0.317278
	45.120000	0.212039
	45.125000	0.235060
	45.130000	0.340299
	45.135000	0.320567
	45.140000	0.208751
	45.145000	0.235060
	45.150000	0.340299
	45.155000	0.320567
	45.160000	0.205462
	45.165000	0.238349
	45.170000	0.343588
	45.175000	0.317278
	45.180000	0.208751
	45.185000	0.231772
	45.190000	0.340299
	45.195000	0.317278
	45.200000	0.208751
	45.205000	0.235060
	45.210000	0.343588
	45.215000	0.313990
	45.220000	0.205462
	45.225000	0.231772
	45.230000	0.340299
	45.235000	0.317278
	45.240000	0.208751
	45.245000	0.231772
	45.250000	0.340299
	45.255000	0.313990
	45.260000	0.202173
	45.265000	0.231772
	45.270000	0.343588
	45.275000	0.307412
	45.280000	0.202173
	45.285000	0.231772
	45.290000	0.337011
	45.295000	0.310701
	45.300000	0.202173
	45.305000	0.228483
	45.310000	0.340299
	45.315000	0.313990
	45.320000	0.205462
	45.325000	0.228483
	45.330000	0.337011
	45.335000	0.307412
	45.340000	0.202173
	45.345000	0.231772
	45.350000	0.340299
	45.355000	0.310701
	45.360000	0.205462
	45.365000	0.228483
	45.370000	0.337011
	45.375000	0.307412
	45.380000	0.198884
	45.385000	0.235060
	45.390000	0.337011
	45.395000	0.313990
	45.400000	0.205462
	45.405000	0.231772
	45.410000	0.333722
	45.415000	0.307412
	45.420000	0.198884
	45.425000	0.228483
	45.430000	0.333722
	45.435000	0.310701
	45.440000	0.202173
	45.445000	0.225194
	45.450000	0.333722
	45.455000	0.313990
	45.460000	0.198884
	45.465000	0.228483
	45.470000	0.337011
	45.475000	0.307412
	45.480000	0.195596
	45.485000	0.228483
	45.490000	0.333722
	45.495000	0.310701
	45.500000	0.198884
	45.505000	0.228483
	45.510000	0.333722
	45.515000	0.304124
	45.520000	0.202173
	45.525000	0.228483
	45.530000	0.333722
	45.535000	0.307412
	45.540000	0.195596
	45.545000	0.228483
	45.550000	0.337011
	45.555000	0.304124
	45.560000	0.198884
	45.565000	0.228483
	45.570000	0.337011
	45.575000	0.307412
	45.580000	0.198884
	45.585000	0.228483
	45.590000	0.337011
	45.595000	0.304124
	45.600000	0.198884
	45.605000	0.228483
	45.610000	0.333722
	45.615000	0.304124
	45.620000	0.195596
	45.625000	0.225194
	45.630000	0.337011
	45.635000	0.304124
	45.640000	0.195596
	45.645000	0.225194
	45.650000	0.333722
	45.655000	0.307412
	45.660000	0.202173
	45.665000	0.225194
	45.670000	0.330433
	45.675000	0.307412
	45.680000	0.198884
	45.685000	0.225194
	45.690000	0.337011
	45.695000	0.304124
	45.700000	0.198884
	45.705000	0.228483
	45.710000	0.330433
	45.715000	0.304124
	45.720000	0.195596
	45.725000	0.225194
	45.730000	0.337011
	45.735000	0.307412
	45.740000	0.198884
	45.745000	0.225194
	45.750000	0.333722
	45.755000	0.304124
	45.760000	0.198884
	45.765000	0.231772
	45.770000	0.330433
	45.775000	0.304124
	45.780000	0.195596
	45.785000	0.228483
	45.790000	0.337011
	45.795000	0.307412
	45.800000	0.198884
	45.805000	0.225194
	45.810000	0.333722
	45.815000	0.304124
	45.820000	0.195596
	45.825000	0.228483
	45.830000	0.337011
	45.835000	0.300835
	45.840000	0.195596
	45.845000	0.225194
	45.850000	0.333722
	45.855000	0.304124
	45.860000	0.195596
	45.865000	0.228483
	45.870000	0.333722
	45.875000	0.307412
	45.880000	0.195596
	45.885000	0.228483
	45.890000	0.333722
	45.895000	0.304124
	45.900000	0.192307
	45.905000	0.228483
	45.910000	0.333722
	45.915000	0.304124
	45.920000	0.192307
	45.925000	0.228483
	45.930000	0.333722
	45.935000	0.307412
	45.940000	0.195596
	45.945000	0.225194
	45.950000	0.330433
	45.955000	0.300835
	45.960000	0.195596
	45.965000	0.228483
	45.970000	0.330433
	45.975000	0.300835
	45.980000	0.192307
	45.985000	0.225194
	45.990000	0.333722
	45.995000	0.300835
	46.000000	0.198884
	46.005000	0.225194
	46.010000	0.333722
	46.015000	0.297546
	46.020000	0.189018
	46.025000	0.225194
	46.030000	0.330433
	46.035000	0.300835
	46.040000	0.192307
	46.045000	0.221905
	46.050000	0.333722
	46.055000	0.304124
	46.060000	0.192307
	46.065000	0.225194
	46.070000	0.337011
	46.075000	0.300835
	46.080000	0.198884
	46.085000	0.228483
	46.090000	0.333722
	46.095000	0.300835
	46.100000	0.195596
	46.105000	0.228483
	46.110000	0.333722
	46.115000	0.300835
	46.120000	0.189018
	46.125000	0.225194
	46.130000	0.333722
	46.135000	0.300835
	46.140000	0.192307
	46.145000	0.225194
	46.150000	0.333722
	46.155000	0.307412
	46.160000	0.189018
	46.165000	0.225194
	46.170000	0.330433
	46.175000	0.297546
	46.180000	0.189018
	46.185000	0.225194
	46.190000	0.330433
	46.195000	0.300835
	46.200000	0.192307
	46.205000	0.225194
	46.210000	0.330433
	46.215000	0.300835
	46.220000	0.195596
	46.225000	0.225194
	46.230000	0.330433
	46.235000	0.300835
	46.240000	0.189018
	46.245000	0.221905
	46.250000	0.330433
	46.255000	0.300835
	46.260000	0.192307
	46.265000	0.225194
	46.270000	0.330433
	46.275000	0.304124
	46.280000	0.189018
	46.285000	0.221905
	46.290000	0.333722
	46.295000	0.294257
	46.300000	0.192307
	46.305000	0.225194
	46.310000	0.327145
	46.315000	0.297546
	46.320000	0.189018
	46.325000	0.221905
	46.330000	0.330433
	46.335000	0.297546
	46.340000	0.192307
	46.345000	0.221905
	46.350000	0.327145
	46.355000	0.294257
	46.360000	0.195596
	46.365000	0.225194
	46.370000	0.330433
	46.375000	0.294257
	46.380000	0.185730
	46.385000	0.221905
	46.390000	0.327145
	46.395000	0.290969
	46.400000	0.185730
	46.405000	0.215328
	46.410000	0.320567
	46.415000	0.294257
	46.420000	0.185730
	46.425000	0.221905
	46.430000	0.323856
	46.435000	0.290969
	46.440000	0.189018
	46.445000	0.221905
	46.450000	0.327145
	46.455000	0.290969
	46.460000	0.185730
	46.465000	0.218617
	46.470000	0.327145
	46.475000	0.294257
	46.480000	0.189018
	46.485000	0.221905
	46.490000	0.327145
	46.495000	0.297546
	46.500000	0.185730
	46.505000	0.225194
	46.510000	0.323856
	46.515000	0.297546
	46.520000	0.185730
	46.525000	0.221905
	46.530000	0.330433
	46.535000	0.294257
	46.540000	0.189018
	46.545000	0.221905
	46.550000	0.327145
	46.555000	0.297546
	46.560000	0.192307
	46.565000	0.225194
	46.570000	0.330433
	46.575000	0.294257
	46.580000	0.189018
	46.585000	0.228483
	46.590000	0.323856
	46.595000	0.294257
	46.600000	0.189018
	46.605000	0.225194
	46.610000	0.327145
	46.615000	0.294257
	46.620000	0.189018
	46.625000	0.221905
	46.630000	0.327145
	46.635000	0.297546
	46.640000	0.195596
	46.645000	0.225194
	46.650000	0.330433
	46.655000	0.294257
	46.660000	0.195596
	46.665000	0.228483
	46.670000	0.330433
	46.675000	0.297546
	46.680000	0.195596
	46.685000	0.235060
	46.690000	0.337011
	46.695000	0.317278
	46.700000	0.208751
	46.705000	0.244927
	46.710000	0.346877
	46.715000	0.317278
	46.720000	0.218617
	46.725000	0.244927
	46.730000	0.346877
	46.735000	0.313990
	46.740000	0.212039
	46.745000	0.241638
	46.750000	0.340299
	46.755000	0.310701
	46.760000	0.202173
	46.765000	0.238349
	46.770000	0.337011
	46.775000	0.300835
	46.780000	0.202173
	46.785000	0.231772
	46.790000	0.337011
	46.795000	0.304124
	46.800000	0.198884
	46.805000	0.228483
	46.810000	0.333722
	46.815000	0.300835
	46.820000	0.195596
	46.825000	0.231772
	46.830000	0.337011
	46.835000	0.297546
	46.840000	0.192307
	46.845000	0.231772
	46.850000	0.330433
	46.855000	0.304124
	46.860000	0.189018
	46.865000	0.225194
	46.870000	0.327145
	46.875000	0.294257
	46.880000	0.195596
	46.885000	0.231772
	46.890000	0.330433
	46.895000	0.297546
	46.900000	0.195596
	46.905000	0.225194
	46.910000	0.330433
	46.915000	0.294257
	46.920000	0.195596
	46.925000	0.225194
	46.930000	0.330433
	46.935000	0.294257
	46.940000	0.185730
	46.945000	0.221905
	46.950000	0.323856
	46.955000	0.287680
	46.960000	0.185730
	46.965000	0.225194
	46.970000	0.327145
	46.975000	0.287680
	46.980000	0.185730
	46.985000	0.221905
	46.990000	0.323856
	46.995000	0.290969
	47.000000	0.182441
	47.005000	0.221905
	47.010000	0.327145
	47.015000	0.287680
	47.020000	0.179152
	47.025000	0.218617
	47.030000	0.323856
	47.035000	0.287680
	47.040000	0.182441
	47.045000	0.218617
	47.050000	0.323856
	47.055000	0.287680
	47.060000	0.182441
	47.065000	0.218617
	47.070000	0.327145
	47.075000	0.287680
	47.080000	0.182441
	47.085000	0.221905
	47.090000	0.323856
	47.095000	0.284391
	47.100000	0.179152
	47.105000	0.218617
	47.110000	0.323856
	47.115000	0.287680
	47.120000	0.179152
	47.125000	0.218617
	47.130000	0.323856
	47.135000	0.287680
	47.140000	0.182441
	47.145000	0.215328
	47.150000	0.320567
	47.155000	0.287680
	47.160000	0.182441
	47.165000	0.218617
	47.170000	0.317278
	47.175000	0.287680
	47.180000	0.182441
	47.185000	0.218617
	47.190000	0.327145
	47.195000	0.284391
	47.200000	0.182441
	47.205000	0.221905
	47.210000	0.320567
	47.215000	0.284391
	47.220000	0.185730
	47.225000	0.221905
	47.230000	0.317278
	47.235000	0.281102
	47.240000	0.179152
	47.245000	0.218617
	47.250000	0.323856
	47.255000	0.287680
	47.260000	0.182441
	47.265000	0.215328
	47.270000	0.320567
	47.275000	0.284391
	47.280000	0.182441
	47.285000	0.218617
	47.290000	0.323856
	47.295000	0.284391
	47.300000	0.182441
	47.305000	0.221905
	47.310000	0.320567
	47.315000	0.287680
	47.320000	0.179152
	47.325000	0.221905
	47.330000	0.327145
	47.335000	0.284391
	47.340000	0.179152
	47.345000	0.221905
	47.350000	0.320567
	47.355000	0.281102
	47.360000	0.175863
	47.365000	0.215328
	47.370000	0.323856
	47.375000	0.287680
	47.380000	0.175863
	47.385000	0.221905
	47.390000	0.327145
	47.395000	0.284391
	47.400000	0.179152
	47.405000	0.218617
	47.410000	0.320567
	47.415000	0.281102
	47.420000	0.175863
	47.425000	0.221905
	47.430000	0.320567
	47.435000	0.284391
	47.440000	0.179152
	47.445000	0.215328
	47.450000	0.323856
	47.455000	0.284391
	47.460000	0.175863
	47.465000	0.221905
	47.470000	0.320567
	47.475000	0.284391
	47.480000	0.182441
	47.485000	0.218617
	47.490000	0.323856
	47.495000	0.281102
	47.500000	0.172575
	47.505000	0.218617
	47.510000	0.320567
	47.515000	0.281102
	47.520000	0.175863
	47.525000	0.218617
	47.530000	0.320567
	47.535000	0.284391
	47.540000	0.172575
	47.545000	0.215328
	47.550000	0.320567
	47.555000	0.281102
	47.560000	0.175863
	47.565000	0.221905
	47.570000	0.317278
	47.575000	0.284391
	47.580000	0.175863
	47.585000	0.215328
	47.590000	0.320567
	47.595000	0.281102
	47.600000	0.172575
	47.605000	0.218617
	47.610000	0.323856
	47.615000	0.284391
	47.620000	0.175863
	47.625000	0.215328
	47.630000	0.317278
	47.635000	0.277814
	47.640000	0.175863
	47.645000	0.215328
	47.650000	0.320567
	47.655000	0.277814
	47.660000	0.175863
	47.665000	0.221905
	47.670000	0.320567
	47.675000	0.281102
	47.680000	0.172575
	47.685000	0.218617
	47.690000	0.320567
	47.695000	0.281102
	47.700000	0.175863
	47.705000	0.218617
	47.710000	0.323856
	47.715000	0.284391
	47.720000	0.175863
	47.725000	0.218617
	47.730000	0.320567
	47.735000	0.281102
	47.740000	0.172575
	47.745000	0.215328
	47.750000	0.320567
	47.755000	0.277814
	47.760000	0.175863
	47.765000	0.215328
	47.770000	0.320567
	47.775000	0.277814
	47.780000	0.172575
	47.785000	0.212039
	47.790000	0.323856
	47.795000	0.277814
	47.800000	0.172575
	47.805000	0.215328
	47.810000	0.320567
	47.815000	0.274525
	47.820000	0.172575
	47.825000	0.215328
	47.830000	0.320567
	47.835000	0.281102
	47.840000	0.172575
	47.845000	0.221905
	47.850000	0.323856
	47.855000	0.274525
	47.860000	0.175863
	47.865000	0.215328
	47.870000	0.320567
	47.875000	0.281102
	47.880000	0.175863
	47.885000	0.215328
	47.890000	0.317278
	47.895000	0.277814
	47.900000	0.172575
	47.905000	0.221905
	47.910000	0.320567
	47.915000	0.277814
	47.920000	0.172575
	47.925000	0.215328
	47.930000	0.323856
	47.935000	0.284391
	47.940000	0.175863
	47.945000	0.212039
	47.950000	0.320567
	47.955000	0.274525
	47.960000	0.172575
	47.965000	0.218617
	47.970000	0.323856
	47.975000	0.281102
	47.980000	0.172575
	47.985000	0.212039
	47.990000	0.320567
	47.995000	0.274525
	48.000000	0.172575
	48.005000	0.218617
	48.010000	0.313990
	48.015000	0.271236
	48.020000	0.169286
	48.025000	0.212039
	48.030000	0.313990
	48.035000	0.271236
	48.040000	0.165997
	48.045000	0.208751
	48.050000	0.310701
	48.055000	0.271236
	48.060000	0.162708
	48.065000	0.208751
	48.070000	0.313990
	48.075000	0.274525
	48.080000	0.172575
	48.085000	0.212039
	48.090000	0.313990
	48.095000	0.271236
	48.100000	0.169286
	48.105000	0.208751
	48.110000	0.310701
	48.115000	0.271236
	48.120000	0.169286
	48.125000	0.212039
	48.130000	0.313990
	48.135000	0.274525
	48.140000	0.172575
	48.145000	0.212039
	48.150000	0.310701
	48.155000	0.271236
	48.160000	0.169286
	48.165000	0.212039
	48.170000	0.310701
	48.175000	0.277814
	48.180000	0.172575
	48.185000	0.215328
	48.190000	0.313990
	48.195000	0.277814
	48.200000	0.175863
	48.205000	0.215328
	48.210000	0.317278
	48.215000	0.277814
	48.220000	0.175863
	48.225000	0.215328
	48.230000	0.317278
	48.235000	0.274525
	48.240000	0.175863
	48.245000	0.221905
	48.250000	0.317278
	48.255000	0.277814
	48.260000	0.182441
	48.265000	0.218617
	48.270000	0.317278
	48.275000	0.284391
	48.280000	0.185730
	48.285000	0.228483
	48.290000	0.333722
	48.295000	0.290969
	48.300000	0.192307
	48.305000	0.235060
	48.310000	0.333722
	48.315000	0.290969
	48.320000	0.192307
	48.325000	0.231772
	48.330000	0.333722
	48.335000	0.290969
	48.340000	0.189018
	48.345000	0.231772
	48.350000	0.330433
	48.355000	0.287680
	48.360000	0.185730
	48.365000	0.228483
	48.370000	0.327145
	48.375000	0.287680
	48.380000	0.182441
	48.385000	0.225194
	48.390000	0.323856
	48.395000	0.281102
	48.400000	0.182441
	48.405000	0.225194
	48.410000	0.320567
	48.415000	0.274525
	48.420000	0.175863
	48.425000	0.221905
	48.430000	0.320567
	48.435000	0.271236
	48.440000	0.179152
	48.445000	0.221905
	48.450000	0.313990
	48.455000	0.277814
	48.460000	0.175863
	48.465000	0.218617
	48.470000	0.317278
	48.475000	0.271236
	48.480000	0.175863
	48.485000	0.221905
	48.490000	0.320567
	48.495000	0.281102
	48.500000	0.175863
	48.505000	0.221905
	48.510000	0.317278
	48.515000	0.277814
	48.520000	0.179152
	48.525000	0.218617
	48.530000	0.320567
	48.535000	0.274525
	48.540000	0.175863
	48.545000	0.218617
	48.550000	0.317278
	48.555000	0.274525
	48.560000	0.169286
	48.565000	0.215328
	48.570000	0.317278
	48.575000	0.274525
	48.580000	0.169286
	48.585000	0.218617
	48.590000	0.320567
	48.595000	0.271236
	48.600000	0.169286
	48.605000	0.215328
	48.610000	0.320567
	48.615000	0.274525
	48.620000	0.169286
	48.625000	0.221905
	48.630000	0.313990
	48.635000	0.267948
	48.640000	0.175863
	48.645000	0.215328
	48.650000	0.317278
	48.655000	0.274525
	48.660000	0.169286
	48.665000	0.215328
	48.670000	0.313990
	48.675000	0.274525
	48.680000	0.172575
	48.685000	0.215328
	48.690000	0.320567
	48.695000	0.271236
	48.700000	0.165997
	48.705000	0.215328
	48.710000	0.317278
	48.715000	0.267948
	48.720000	0.169286
	48.725000	0.218617
	48.730000	0.317278
	48.735000	0.274525
	48.740000	0.172575
	48.745000	0.212039
	48.750000	0.313990
	48.755000	0.271236
	48.760000	0.165997
	48.765000	0.212039
	48.770000	0.313990
	48.775000	0.267948
	48.780000	0.165997
	48.785000	0.208751
	48.790000	0.310701
	48.795000	0.267948
	48.800000	0.162708
	48.805000	0.208751
	48.810000	0.307412
	48.815000	0.264659
	48.820000	0.162708
	48.825000	0.212039
	48.830000	0.307412
	48.835000	0.264659
	48.840000	0.162708
	48.845000	0.208751
	48.850000	0.307412
	48.855000	0.264659
	48.860000	0.159420
	48.865000	0.208751
	48.870000	0.307412
	48.875000	0.267948
	48.880000	0.162708
	48.885000	0.208751
	48.890000	0.307412
	48.895000	0.261370
	48.900000	0.159420
	48.905000	0.208751
	48.910000	0.304124
	48.915000	0.261370
	48.920000	0.162708
	48.925000	0.208751
	48.930000	0.304124
	48.935000	0.264659
	48.940000	0.162708
	48.945000	0.205462
	48.950000	0.304124
	48.955000	0.261370
	48.960000	0.159420
	48.965000	0.208751
	48.970000	0.304124
	48.975000	0.261370
	48.980000	0.162708
	48.985000	0.205462
	48.990000	0.304124
	48.995000	0.264659
	49.000000	0.159420
	49.005000	0.205462
	49.010000	0.307412
	49.015000	0.264659
	49.020000	0.159420
	49.025000	0.208751
	49.030000	0.304124
	49.035000	0.261370
	49.040000	0.159420
	49.045000	0.208751
	49.050000	0.310701
	49.055000	0.258081
	49.060000	0.159420
	49.065000	0.205462
	49.070000	0.307412
	49.075000	0.261370
	49.080000	0.159420
	49.085000	0.202173
	49.090000	0.307412
	49.095000	0.261370
	49.100000	0.156131
	49.105000	0.205462
	49.110000	0.307412
	49.115000	0.261370
	49.120000	0.156131
	49.125000	0.205462
	49.130000	0.304124
	49.135000	0.254793
	49.140000	0.156131
	49.145000	0.208751
	49.150000	0.307412
	49.155000	0.261370
	49.160000	0.159420
	49.165000	0.205462
	49.170000	0.307412
	49.175000	0.261370
	49.180000	0.156131
	49.185000	0.205462
	49.190000	0.304124
	49.195000	0.258081
	49.200000	0.159420
	49.205000	0.205462
	49.210000	0.307412
	49.215000	0.258081
	49.220000	0.156131
	49.225000	0.202173
	49.230000	0.304124
	49.235000	0.258081
	49.240000	0.159420
	49.245000	0.198884
	49.250000	0.300835
	49.255000	0.258081
	49.260000	0.152842
	49.265000	0.202173
	49.270000	0.304124
	49.275000	0.258081
	49.280000	0.156131
	49.285000	0.202173
	49.290000	0.304124
	49.295000	0.254793
	49.300000	0.152842
	49.305000	0.202173
	49.310000	0.304124
	49.315000	0.258081
	49.320000	0.156131
	49.325000	0.198884
	49.330000	0.307412
	49.335000	0.254793
	49.340000	0.152842
	49.345000	0.202173
	49.350000	0.300835
	49.355000	0.254793
	49.360000	0.156131
	49.365000	0.205462
	49.370000	0.304124
	49.375000	0.258081
	49.380000	0.156131
	49.385000	0.202173
	49.390000	0.304124
	49.395000	0.254793
	49.400000	0.159420
	49.405000	0.205462
	49.410000	0.304124
	49.415000	0.258081
	49.420000	0.159420
	49.425000	0.208751
	49.430000	0.304124
	49.435000	0.258081
	49.440000	0.159420
	49.445000	0.205462
	49.450000	0.307412
	49.455000	0.264659
	49.460000	0.156131
	49.465000	0.202173
	49.470000	0.307412
	49.475000	0.254793
	49.480000	0.152842
	49.485000	0.205462
	49.490000	0.307412
	49.495000	0.254793
	49.500000	0.152842
	49.505000	0.205462
	49.510000	0.304124
	49.515000	0.258081
	49.520000	0.156131
	49.525000	0.202173
	49.530000	0.300835
	49.535000	0.258081
	49.540000	0.159420
	49.545000	0.208751
	49.550000	0.304124
	49.555000	0.258081
	49.560000	0.152842
	49.565000	0.208751
	49.570000	0.300835
	49.575000	0.254793
	49.580000	0.159420
	49.585000	0.205462
	49.590000	0.307412
	49.595000	0.261370
	49.600000	0.156131
	49.605000	0.205462
	49.610000	0.307412
	49.615000	0.258081
	49.620000	0.159420
	49.625000	0.208751
	49.630000	0.307412
	49.635000	0.261370
	49.640000	0.152842
	49.645000	0.202173
	49.650000	0.307412
	49.655000	0.261370
	49.660000	0.156131
	49.665000	0.208751
	49.670000	0.304124
	49.675000	0.258081
	49.680000	0.159420
	49.685000	0.208751
	49.690000	0.310701
	49.695000	0.258081
	49.700000	0.159420
	49.705000	0.205462
	49.710000	0.304124
	49.715000	0.258081
	49.720000	0.156131
	49.725000	0.202173
	49.730000	0.307412
	49.735000	0.254793
	49.740000	0.149554
	49.745000	0.208751
	49.750000	0.300835
	49.755000	0.254793
	49.760000	0.152842
	49.765000	0.202173
