2024/7/26 	 11:30:15 
 This file comes from Vt only measurement 	 1.000000E-1 
 Voltage Sensitivity 	 0.000000E+0 
 Sampling rate 	 200 
 Number of samples per channel 	 -1 
 No filter from Labview 	 	 	 
 	 
 ***End_of_Header*** 
 	 Time 	  Voltage 	 Filtered Voltage 	 
	0.000000	0.386342
	0.005000	0.323856
	0.010000	0.185730
	0.015000	0.251504
	0.020000	0.389630
	0.025000	0.327145
	0.030000	0.182441
	0.035000	0.248215
	0.040000	0.392919
	0.045000	0.327145
	0.050000	0.182441
	0.055000	0.251504
	0.060000	0.392919
	0.065000	0.330433
	0.070000	0.185730
	0.075000	0.254793
	0.080000	0.392919
	0.085000	0.327145
	0.090000	0.185730
	0.095000	0.251504
	0.100000	0.392919
	0.105000	0.327145
	0.110000	0.185730
	0.115000	0.258081
	0.120000	0.392919
	0.125000	0.330433
	0.130000	0.195596
	0.135000	0.258081
	0.140000	0.396208
	0.145000	0.330433
	0.150000	0.198884
	0.155000	0.261370
	0.160000	0.399496
	0.165000	0.337011
	0.170000	0.198884
	0.175000	0.267948
	0.180000	0.402785
	0.185000	0.337011
	0.190000	0.198884
	0.195000	0.271236
	0.200000	0.406074
	0.205000	0.333722
	0.210000	0.198884
	0.215000	0.271236
	0.220000	0.402785
	0.225000	0.337011
	0.230000	0.195596
	0.235000	0.271236
	0.240000	0.402785
	0.245000	0.330433
	0.250000	0.195596
	0.255000	0.267948
	0.260000	0.402785
	0.265000	0.327145
	0.270000	0.189018
	0.275000	0.258081
	0.280000	0.392919
	0.285000	0.317278
	0.290000	0.182441
	0.295000	0.251504
	0.300000	0.389630
	0.305000	0.320567
	0.310000	0.185730
	0.315000	0.258081
	0.320000	0.392919
	0.325000	0.317278
	0.330000	0.185730
	0.335000	0.261370
	0.340000	0.396208
	0.345000	0.323856
	0.350000	0.189018
	0.355000	0.267948
	0.360000	0.399496
	0.365000	0.327145
	0.370000	0.189018
	0.375000	0.267948
	0.380000	0.402785
	0.385000	0.323856
	0.390000	0.192307
	0.395000	0.267948
	0.400000	0.402785
	0.405000	0.320567
	0.410000	0.189018
	0.415000	0.264659
	0.420000	0.399496
	0.425000	0.320567
	0.430000	0.189018
	0.435000	0.264659
	0.440000	0.396208
	0.445000	0.320567
	0.450000	0.185730
	0.455000	0.258081
	0.460000	0.392919
	0.465000	0.313990
	0.470000	0.185730
	0.475000	0.258081
	0.480000	0.392919
	0.485000	0.313990
	0.490000	0.185730
	0.495000	0.264659
	0.500000	0.392919
	0.505000	0.313990
	0.510000	0.182441
	0.515000	0.254793
	0.520000	0.389630
	0.525000	0.307412
	0.530000	0.179152
	0.535000	0.251504
	0.540000	0.386342
	0.545000	0.313990
	0.550000	0.179152
	0.555000	0.258081
	0.560000	0.389630
	0.565000	0.310701
	0.570000	0.185730
	0.575000	0.264659
	0.580000	0.399496
	0.585000	0.323856
	0.590000	0.198884
	0.595000	0.284391
	0.600000	0.412651
	0.605000	0.337011
	0.610000	0.212039
	0.615000	0.297546
	0.620000	0.429095
	0.625000	0.356743
	0.630000	0.231772
	0.635000	0.310701
	0.640000	0.442250
	0.645000	0.366609
	0.650000	0.241638
	0.655000	0.320567
	0.660000	0.452116
	0.665000	0.379764
	0.670000	0.254793
	0.675000	0.333722
	0.680000	0.468560
	0.685000	0.386342
	0.690000	0.261370
	0.695000	0.346877
	0.700000	0.471848
	0.705000	0.396208
	0.710000	0.271236
	0.715000	0.353454
	0.720000	0.478426
	0.725000	0.399496
	0.730000	0.277814
	0.735000	0.350166
	0.740000	0.475137
	0.745000	0.392919
	0.750000	0.274525
	0.755000	0.350166
	0.760000	0.468560
	0.765000	0.389630
	0.770000	0.264659
	0.775000	0.343588
	0.780000	0.455405
	0.785000	0.373187
	0.790000	0.244927
	0.795000	0.323856
	0.800000	0.432384
	0.805000	0.350166
	0.810000	0.225194
	0.815000	0.304124
	0.820000	0.415940
	0.825000	0.330433
	0.830000	0.205462
	0.835000	0.277814
	0.840000	0.396208
	0.845000	0.307412
	0.850000	0.189018
	0.855000	0.261370
	0.860000	0.383053
	0.865000	0.297546
	0.870000	0.175863
	0.875000	0.251504
	0.880000	0.366609
	0.885000	0.277814
	0.890000	0.156131
	0.895000	0.241638
	0.900000	0.363321
	0.905000	0.274525
	0.910000	0.152842
	0.915000	0.231772
	0.920000	0.350166
	0.925000	0.264659
	0.930000	0.142976
	0.935000	0.231772
	0.940000	0.343588
	0.945000	0.261370
	0.950000	0.136399
	0.955000	0.228483
	0.960000	0.346877
	0.965000	0.258081
	0.970000	0.139687
	0.975000	0.225194
	0.980000	0.346877
	0.985000	0.258081
	0.990000	0.142976
	0.995000	0.231772
	1.000000	0.350166
	1.005000	0.264659
	1.010000	0.149554
	1.015000	0.231772
	1.020000	0.353454
	1.025000	0.274525
	1.030000	0.156131
	1.035000	0.244927
	1.040000	0.360032
	1.045000	0.274525
	1.050000	0.165997
	1.055000	0.254793
	1.060000	0.363321
	1.065000	0.284391
	1.070000	0.169286
	1.075000	0.261370
	1.080000	0.373187
	1.085000	0.290969
	1.090000	0.172575
	1.095000	0.264659
	1.100000	0.376475
	1.105000	0.290969
	1.110000	0.175863
	1.115000	0.261370
	1.120000	0.379764
	1.125000	0.294257
	1.130000	0.179152
	1.135000	0.264659
	1.140000	0.386342
	1.145000	0.297546
	1.150000	0.182441
	1.155000	0.274525
	1.160000	0.389630
	1.165000	0.297546
	1.170000	0.182441
	1.175000	0.271236
	1.180000	0.383053
	1.185000	0.304124
	1.190000	0.185730
	1.195000	0.274525
	1.200000	0.383053
	1.205000	0.290969
	1.210000	0.182441
	1.215000	0.274525
	1.220000	0.386342
	1.225000	0.290969
	1.230000	0.185730
	1.235000	0.277814
	1.240000	0.386342
	1.245000	0.300835
	1.250000	0.189018
	1.255000	0.277814
	1.260000	0.389630
	1.265000	0.300835
	1.270000	0.189018
	1.275000	0.281102
	1.280000	0.392919
	1.285000	0.304124
	1.290000	0.192307
	1.295000	0.284391
	1.300000	0.392919
	1.305000	0.307412
	1.310000	0.195596
	1.315000	0.287680
	1.320000	0.402785
	1.325000	0.310701
	1.330000	0.208751
	1.335000	0.300835
	1.340000	0.402785
	1.345000	0.313990
	1.350000	0.208751
	1.355000	0.304124
	1.360000	0.415940
	1.365000	0.320567
	1.370000	0.208751
	1.375000	0.304124
	1.380000	0.409363
	1.385000	0.317278
	1.390000	0.212039
	1.395000	0.300835
	1.400000	0.406074
	1.405000	0.310701
	1.410000	0.202173
	1.415000	0.300835
	1.420000	0.399496
	1.425000	0.307412
	1.430000	0.202173
	1.435000	0.294257
	1.440000	0.402785
	1.445000	0.310701
	1.450000	0.195596
	1.455000	0.297546
	1.460000	0.399496
	1.465000	0.304124
	1.470000	0.198884
	1.475000	0.300835
	1.480000	0.399496
	1.485000	0.304124
	1.490000	0.195596
	1.495000	0.297546
	1.500000	0.406074
	1.505000	0.300835
	1.510000	0.202173
	1.515000	0.294257
	1.520000	0.402785
	1.525000	0.307412
	1.530000	0.202173
	1.535000	0.300835
	1.540000	0.406074
	1.545000	0.310701
	1.550000	0.202173
	1.555000	0.300835
	1.560000	0.406074
	1.565000	0.310701
	1.570000	0.202173
	1.575000	0.300835
	1.580000	0.406074
	1.585000	0.300835
	1.590000	0.195596
	1.595000	0.294257
	1.600000	0.399496
	1.605000	0.297546
	1.610000	0.185730
	1.615000	0.290969
	1.620000	0.392919
	1.625000	0.287680
	1.630000	0.182441
	1.635000	0.284391
	1.640000	0.386342
	1.645000	0.277814
	1.650000	0.175863
	1.655000	0.277814
	1.660000	0.376475
	1.665000	0.277814
	1.670000	0.172575
	1.675000	0.274525
	1.680000	0.376475
	1.685000	0.271236
	1.690000	0.165997
	1.695000	0.274525
	1.700000	0.373187
	1.705000	0.267948
	1.710000	0.162708
	1.715000	0.271236
	1.720000	0.369898
	1.725000	0.267948
	1.730000	0.159420
	1.735000	0.274525
	1.740000	0.379764
	1.745000	0.267948
	1.750000	0.165997
	1.755000	0.274525
	1.760000	0.376475
	1.765000	0.264659
	1.770000	0.169286
	1.775000	0.277814
	1.780000	0.376475
	1.785000	0.264659
	1.790000	0.165997
	1.795000	0.274525
	1.800000	0.379764
	1.805000	0.264659
	1.810000	0.165997
	1.815000	0.281102
	1.820000	0.379764
	1.825000	0.267948
	1.830000	0.169286
	1.835000	0.277814
	1.840000	0.376475
	1.845000	0.264659
	1.850000	0.169286
	1.855000	0.277814
	1.860000	0.379764
	1.865000	0.264659
	1.870000	0.165997
	1.875000	0.277814
	1.880000	0.379764
	1.885000	0.264659
	1.890000	0.162708
	1.895000	0.274525
	1.900000	0.376475
	1.905000	0.261370
	1.910000	0.165997
	1.915000	0.277814
	1.920000	0.379764
	1.925000	0.264659
	1.930000	0.165997
	1.935000	0.281102
	1.940000	0.383053
	1.945000	0.267948
	1.950000	0.165997
	1.955000	0.281102
	1.960000	0.379764
	1.965000	0.264659
	1.970000	0.162708
	1.975000	0.284391
	1.980000	0.379764
	1.985000	0.264659
	1.990000	0.169286
	1.995000	0.281102
	2.000000	0.376475
	2.005000	0.264659
	2.010000	0.165997
	2.015000	0.284391
	2.020000	0.379764
	2.025000	0.267948
	2.030000	0.169286
	2.035000	0.284391
	2.040000	0.383053
	2.045000	0.264659
	2.050000	0.169286
	2.055000	0.284391
	2.060000	0.379764
	2.065000	0.264659
	2.070000	0.165997
	2.075000	0.287680
	2.080000	0.383053
	2.085000	0.264659
	2.090000	0.172575
	2.095000	0.287680
	2.100000	0.392919
	2.105000	0.264659
	2.110000	0.172575
	2.115000	0.290969
	2.120000	0.386342
	2.125000	0.264659
	2.130000	0.162708
	2.135000	0.290969
	2.140000	0.386342
	2.145000	0.261370
	2.150000	0.162708
	2.155000	0.287680
	2.160000	0.386342
	2.165000	0.258081
	2.170000	0.169286
	2.175000	0.287680
	2.180000	0.383053
	2.185000	0.264659
	2.190000	0.169286
	2.195000	0.294257
	2.200000	0.386342
	2.205000	0.264659
	2.210000	0.175863
	2.215000	0.294257
	2.220000	0.389630
	2.225000	0.267948
	2.230000	0.179152
	2.235000	0.300835
	2.240000	0.392919
	2.245000	0.264659
	2.250000	0.172575
	2.255000	0.300835
	2.260000	0.396208
	2.265000	0.267948
	2.270000	0.179152
	2.275000	0.304124
	2.280000	0.392919
	2.285000	0.271236
	2.290000	0.179152
	2.295000	0.304124
	2.300000	0.389630
	2.305000	0.264659
	2.310000	0.175863
	2.315000	0.307412
	2.320000	0.392919
	2.325000	0.267948
	2.330000	0.179152
	2.335000	0.300835
	2.340000	0.396208
	2.345000	0.267948
	2.350000	0.175863
	2.355000	0.300835
	2.360000	0.392919
	2.365000	0.271236
	2.370000	0.179152
	2.375000	0.307412
	2.380000	0.399496
	2.385000	0.267948
	2.390000	0.179152
	2.395000	0.307412
	2.400000	0.396208
	2.405000	0.267948
	2.410000	0.182441
	2.415000	0.313990
	2.420000	0.399496
	2.425000	0.267948
	2.430000	0.189018
	2.435000	0.313990
	2.440000	0.396208
	2.445000	0.274525
	2.450000	0.185730
	2.455000	0.313990
	2.460000	0.399496
	2.465000	0.274525
	2.470000	0.195596
	2.475000	0.320567
	2.480000	0.399496
	2.485000	0.274525
	2.490000	0.189018
	2.495000	0.313990
	2.500000	0.402785
	2.505000	0.274525
	2.510000	0.185730
	2.515000	0.317278
	2.520000	0.396208
	2.525000	0.267948
	2.530000	0.182441
	2.535000	0.304124
	2.540000	0.389630
	2.545000	0.258081
	2.550000	0.179152
	2.555000	0.294257
	2.560000	0.383053
	2.565000	0.254793
	2.570000	0.169286
	2.575000	0.294257
	2.580000	0.376475
	2.585000	0.241638
	2.590000	0.165997
	2.595000	0.290969
	2.600000	0.369898
	2.605000	0.235060
	2.610000	0.159420
	2.615000	0.281102
	2.620000	0.356743
	2.625000	0.238349
	2.630000	0.169286
	2.635000	0.297546
	2.640000	0.379764
	2.645000	0.271236
	2.650000	0.198884
	2.655000	0.313990
	2.660000	0.389630
	2.665000	0.267948
	2.670000	0.189018
	2.675000	0.307412
	2.680000	0.383053
	2.685000	0.267948
	2.690000	0.195596
	2.695000	0.310701
	2.700000	0.379764
	2.705000	0.264659
	2.710000	0.175863
	2.715000	0.287680
	2.720000	0.340299
	2.725000	0.212039
	2.730000	0.126533
	2.735000	0.221905
	2.740000	0.281102
	2.745000	0.152842
	2.750000	0.064047
	2.755000	0.156131
	2.760000	0.208751
	2.765000	0.080490
	2.770000	-0.008305
	2.775000	0.083779
	2.780000	0.139687
	2.785000	0.014716
	2.790000	-0.067502
	2.795000	0.027871
	2.800000	0.080490
	2.805000	-0.041192
	2.810000	-0.123410
	2.815000	-0.034615
	2.820000	0.001561
	2.825000	-0.166164
	2.830000	-0.314156
	2.835000	-0.277980
	2.840000	-0.254959
	2.845000	-0.379931
	2.850000	-0.462149
	2.855000	-0.373353
	2.860000	-0.307579
	2.865000	-0.393086
	2.870000	-0.439128
	2.875000	-0.310868
	2.880000	-0.215495
	2.885000	-0.284558
	2.890000	-0.314156
	2.895000	-0.192474
	2.900000	-0.103678
	2.905000	-0.169453
	2.910000	-0.205628
	2.915000	-0.083946
	2.920000	0.004850
	2.925000	-0.064213
	2.930000	-0.093812
	2.935000	0.027871
	2.940000	0.113378
	2.945000	0.044314
	2.950000	0.014716
	2.955000	0.133110
	2.960000	0.212039
	2.965000	0.149554
	2.970000	0.116666
	2.975000	0.244927
	2.980000	0.333722
	2.985000	0.261370
	2.990000	0.225194
	2.995000	0.346877
	3.000000	0.435672
	3.005000	0.356743
	3.010000	0.323856
	3.015000	0.448827
	3.020000	0.521179
	3.025000	0.445539
	3.030000	0.406074
	3.035000	0.527757
	3.040000	0.596820
	3.045000	0.494869
	3.050000	0.422518
	3.055000	0.521179
	3.060000	0.573799
	3.065000	0.458694
	3.070000	0.389630
	3.075000	0.491581
	3.080000	0.540912
	3.085000	0.412651
	3.090000	0.343588
	3.095000	0.435672
	3.100000	0.485003
	3.105000	0.369898
	3.110000	0.287680
	3.115000	0.386342
	3.120000	0.442250
	3.125000	0.323856
	3.130000	0.254793
	3.135000	0.356743
	3.140000	0.409363
	3.145000	0.290969
	3.150000	0.225194
	3.155000	0.330433
	3.160000	0.392919
	3.165000	0.277814
	3.170000	0.221905
	3.175000	0.337011
	3.180000	0.396208
	3.185000	0.290969
	3.190000	0.241638
	3.195000	0.356743
	3.200000	0.419229
	3.205000	0.313990
	3.210000	0.251504
	3.215000	0.376475
	3.220000	0.438961
	3.225000	0.323856
	3.230000	0.264659
	3.235000	0.389630
	3.240000	0.445539
	3.245000	0.327145
	3.250000	0.264659
	3.255000	0.386342
	3.260000	0.442250
	3.265000	0.320567
	3.270000	0.264659
	3.275000	0.386342
	3.280000	0.438961
	3.285000	0.313990
	3.290000	0.267948
	3.295000	0.406074
	3.300000	0.465271
	3.305000	0.343588
	3.310000	0.294257
	3.315000	0.425806
	3.320000	0.478426
	3.325000	0.353454
	3.330000	0.297546
	3.335000	0.429095
	3.340000	0.485003
	3.345000	0.353454
	3.350000	0.304124
	3.355000	0.438961
	3.360000	0.491581
	3.365000	0.363321
	3.370000	0.307412
	3.375000	0.438961
	3.380000	0.491581
	3.385000	0.360032
	3.390000	0.297546
	3.395000	0.429095
	3.400000	0.481715
	3.405000	0.346877
	3.410000	0.287680
	3.415000	0.415940
	3.420000	0.471848
	3.425000	0.337011
	3.430000	0.277814
	3.435000	0.412651
	3.440000	0.465271
	3.445000	0.323856
	3.450000	0.267948
	3.455000	0.406074
	3.460000	0.455405
	3.465000	0.313990
	3.470000	0.254793
	3.475000	0.396208
	3.480000	0.445539
	3.485000	0.307412
	3.490000	0.251504
	3.495000	0.389630
	3.500000	0.438961
	3.505000	0.297546
	3.510000	0.244927
	3.515000	0.386342
	3.520000	0.438961
	3.525000	0.290969
	3.530000	0.238349
	3.535000	0.379764
	3.540000	0.425806
	3.545000	0.290969
	3.550000	0.235060
	3.555000	0.373187
	3.560000	0.419229
	3.565000	0.281102
	3.570000	0.221905
	3.575000	0.369898
	3.580000	0.422518
	3.585000	0.274525
	3.590000	0.221905
	3.595000	0.363321
	3.600000	0.415940
	3.605000	0.264659
	3.610000	0.215328
	3.615000	0.366609
	3.620000	0.406074
	3.625000	0.258081
	3.630000	0.212039
	3.635000	0.360032
	3.640000	0.406074
	3.645000	0.251504
	3.650000	0.208751
	3.655000	0.346877
	3.660000	0.399496
	3.665000	0.251504
	3.670000	0.205462
	3.675000	0.346877
	3.680000	0.396208
	3.685000	0.248215
	3.690000	0.198884
	3.695000	0.346877
	3.700000	0.392919
	3.705000	0.248215
	3.710000	0.198884
	3.715000	0.343588
	3.720000	0.383053
	3.725000	0.241638
	3.730000	0.195596
	3.735000	0.340299
	3.740000	0.386342
	3.745000	0.241638
	3.750000	0.192307
	3.755000	0.333722
	3.760000	0.386342
	3.765000	0.238349
	3.770000	0.192307
	3.775000	0.340299
	3.780000	0.379764
	3.785000	0.238349
	3.790000	0.189018
	3.795000	0.337011
	3.800000	0.383053
	3.805000	0.238349
	3.810000	0.185730
	3.815000	0.333722
	3.820000	0.373187
	3.825000	0.228483
	3.830000	0.185730
	3.835000	0.330433
	3.840000	0.376475
	3.845000	0.231772
	3.850000	0.185730
	3.855000	0.323856
	3.860000	0.373187
	3.865000	0.228483
	3.870000	0.182441
	3.875000	0.330433
	3.880000	0.373187
	3.885000	0.225194
	3.890000	0.179152
	3.895000	0.330433
	3.900000	0.369898
	3.905000	0.225194
	3.910000	0.182441
	3.915000	0.323856
	3.920000	0.369898
	3.925000	0.225194
	3.930000	0.182441
	3.935000	0.327145
	3.940000	0.366609
	3.945000	0.218617
	3.950000	0.182441
	3.955000	0.333722
	3.960000	0.366609
	3.965000	0.225194
	3.970000	0.182441
	3.975000	0.330433
	3.980000	0.373187
	3.985000	0.225194
	3.990000	0.185730
	3.995000	0.337011
	4.000000	0.369898
	4.005000	0.221905
	4.010000	0.185730
	4.015000	0.333722
	4.020000	0.373187
	4.025000	0.221905
	4.030000	0.189018
	4.035000	0.333722
	4.040000	0.373187
	4.045000	0.221905
	4.050000	0.189018
	4.055000	0.340299
	4.060000	0.369898
	4.065000	0.225194
	4.070000	0.189018
	4.075000	0.340299
	4.080000	0.373187
	4.085000	0.221905
	4.090000	0.185730
	4.095000	0.340299
	4.100000	0.369898
	4.105000	0.221905
	4.110000	0.189018
	4.115000	0.340299
	4.120000	0.373187
	4.125000	0.225194
	4.130000	0.195596
	4.135000	0.346877
	4.140000	0.376475
	4.145000	0.228483
	4.150000	0.195596
	4.155000	0.346877
	4.160000	0.379764
	4.165000	0.228483
	4.170000	0.195596
	4.175000	0.350166
	4.180000	0.379764
	4.185000	0.235060
	4.190000	0.195596
	4.195000	0.350166
	4.200000	0.389630
	4.205000	0.235060
	4.210000	0.208751
	4.215000	0.356743
	4.220000	0.386342
	4.225000	0.235060
	4.230000	0.208751
	4.235000	0.353454
	4.240000	0.392919
	4.245000	0.235060
	4.250000	0.212039
	4.255000	0.363321
	4.260000	0.389630
	4.265000	0.238349
	4.270000	0.212039
	4.275000	0.363321
	4.280000	0.392919
	4.285000	0.235060
	4.290000	0.205462
	4.295000	0.356743
	4.300000	0.392919
	4.305000	0.235060
	4.310000	0.208751
	4.315000	0.360032
	4.320000	0.383053
	4.325000	0.235060
	4.330000	0.208751
	4.335000	0.356743
	4.340000	0.386342
	4.345000	0.228483
	4.350000	0.208751
	4.355000	0.360032
	4.360000	0.383053
	4.365000	0.235060
	4.370000	0.205462
	4.375000	0.360032
	4.380000	0.383053
	4.385000	0.231772
	4.390000	0.205462
	4.395000	0.356743
	4.400000	0.389630
	4.405000	0.228483
	4.410000	0.205462
	4.415000	0.356743
	4.420000	0.383053
	4.425000	0.228483
	4.430000	0.205462
	4.435000	0.360032
	4.440000	0.386342
	4.445000	0.228483
	4.450000	0.205462
	4.455000	0.356743
	4.460000	0.383053
	4.465000	0.221905
	4.470000	0.205462
	4.475000	0.356743
	4.480000	0.379764
	4.485000	0.228483
	4.490000	0.202173
	4.495000	0.356743
	4.500000	0.383053
	4.505000	0.225194
	4.510000	0.202173
	4.515000	0.353454
	4.520000	0.373187
	4.525000	0.218617
	4.530000	0.202173
	4.535000	0.353454
	4.540000	0.376475
	4.545000	0.218617
	4.550000	0.205462
	4.555000	0.356743
	4.560000	0.386342
	4.565000	0.235060
	4.570000	0.225194
	4.575000	0.376475
	4.580000	0.406074
	4.585000	0.254793
	4.590000	0.248215
	4.595000	0.396208
	4.600000	0.425806
	4.605000	0.277814
	4.610000	0.264659
	4.615000	0.415940
	4.620000	0.435672
	4.625000	0.290969
	4.630000	0.277814
	4.635000	0.425806
	4.640000	0.435672
	4.645000	0.300835
	4.650000	0.281102
	4.655000	0.429095
	4.660000	0.445539
	4.665000	0.297546
	4.670000	0.281102
	4.675000	0.425806
	4.680000	0.448827
	4.685000	0.300835
	4.690000	0.287680
	4.695000	0.429095
	4.700000	0.442250
	4.705000	0.297546
	4.710000	0.284391
	4.715000	0.425806
	4.720000	0.435672
	4.725000	0.297546
	4.730000	0.277814
	4.735000	0.419229
	4.740000	0.435672
	4.745000	0.294257
	4.750000	0.281102
	4.755000	0.419229
	4.760000	0.432384
	4.765000	0.290969
	4.770000	0.267948
	4.775000	0.422518
	4.780000	0.432384
	4.785000	0.290969
	4.790000	0.277814
	4.795000	0.419229
	4.800000	0.435672
	4.805000	0.297546
	4.810000	0.281102
	4.815000	0.419229
	4.820000	0.438961
	4.825000	0.300835
	4.830000	0.290969
	4.835000	0.432384
	4.840000	0.448827
	4.845000	0.310701
	4.850000	0.294257
	4.855000	0.432384
	4.860000	0.442250
	4.865000	0.304124
	4.870000	0.300835
	4.875000	0.435672
	4.880000	0.442250
	4.885000	0.304124
	4.890000	0.287680
	4.895000	0.415940
	4.900000	0.429095
	4.905000	0.294257
	4.910000	0.277814
	4.915000	0.406074
	4.920000	0.412651
	4.925000	0.274525
	4.930000	0.248215
	4.935000	0.373187
	4.940000	0.373187
	4.945000	0.235060
	4.950000	0.218617
	4.955000	0.340299
	4.960000	0.346877
	4.965000	0.205462
	4.970000	0.185730
	4.975000	0.317278
	4.980000	0.330433
	4.985000	0.195596
	4.990000	0.179152
	4.995000	0.310701
	5.000000	0.313990
	5.005000	0.175863
	5.010000	0.165997
	5.015000	0.290969
	5.020000	0.290969
	5.025000	0.142976
	5.030000	0.119955
	5.035000	0.244927
	5.040000	0.241638
	5.045000	0.103511
	5.050000	0.080490
	5.055000	0.198884
	5.060000	0.195596
	5.065000	0.041026
	5.070000	0.014716
	5.075000	0.116666
	5.080000	0.096934
	5.085000	-0.057636
	5.090000	-0.097101
	5.095000	0.004850
	5.100000	-0.011594
	5.105000	-0.185896
	5.110000	-0.254959
	5.115000	-0.199051
	5.120000	-0.238516
	5.125000	-0.409529
	5.130000	-0.458860
	5.135000	-0.373353
	5.140000	-0.389797
	5.145000	-0.524635
	5.150000	-0.547656
	5.155000	-0.435839
	5.160000	-0.419395
	5.165000	-0.524635
	5.170000	-0.518057
	5.175000	-0.389797
	5.180000	-0.350332
	5.185000	-0.442417
	5.190000	-0.422684
	5.195000	-0.271403
	5.200000	-0.231938
	5.205000	-0.317445
	5.210000	-0.294424
	5.215000	-0.153009
	5.220000	-0.116833
	5.225000	-0.205628
	5.230000	-0.182607
	5.235000	-0.037904
	5.240000	-0.005016
	5.245000	-0.093812
	5.250000	-0.080657
	5.255000	0.064047
	5.260000	0.090357
	5.265000	-0.005016
	5.270000	0.021293
	5.275000	0.162708
	5.280000	0.195596
	5.285000	0.100223
	5.290000	0.123244
	5.295000	0.274525
	5.300000	0.307412
	5.305000	0.215328
	5.310000	0.238349
	5.315000	0.379764
	5.320000	0.402785
	5.325000	0.297546
	5.330000	0.313990
	5.335000	0.448827
	5.340000	0.455405
	5.345000	0.340299
	5.350000	0.343588
	5.355000	0.475137
	5.360000	0.478426
	5.365000	0.360032
	5.370000	0.379764
	5.375000	0.521179
	5.380000	0.527757
	5.385000	0.396208
	5.390000	0.389630
	5.395000	0.521179
	5.400000	0.511313
	5.405000	0.373187
	5.410000	0.363321
	5.415000	0.481715
	5.420000	0.458694
	5.425000	0.300835
	5.430000	0.287680
	5.435000	0.412651
	5.440000	0.396208
	5.445000	0.254793
	5.450000	0.258081
	5.455000	0.383053
	5.460000	0.379764
	5.465000	0.241638
	5.470000	0.248215
	5.475000	0.379764
	5.480000	0.369898
	5.485000	0.235060
	5.490000	0.238349
	5.495000	0.366609
	5.500000	0.360032
	5.505000	0.225194
	5.510000	0.228483
	5.515000	0.356743
	5.520000	0.343588
	5.525000	0.208751
	5.530000	0.215328
	5.535000	0.346877
	5.540000	0.330433
	5.545000	0.205462
	5.550000	0.208751
	5.555000	0.343588
	5.560000	0.340299
	5.565000	0.205462
	5.570000	0.218617
	5.575000	0.356743
	5.580000	0.350166
	5.585000	0.218617
	5.590000	0.231772
	5.595000	0.379764
	5.600000	0.360032
	5.605000	0.225194
	5.610000	0.235060
	5.615000	0.379764
	5.620000	0.366609
	5.625000	0.235060
	5.630000	0.244927
	5.635000	0.386342
	5.640000	0.376475
	5.645000	0.244927
	5.650000	0.254793
	5.655000	0.402785
	5.660000	0.392919
	5.665000	0.251504
	5.670000	0.264659
	5.675000	0.412651
	5.680000	0.396208
	5.685000	0.258081
	5.690000	0.281102
	5.695000	0.425806
	5.700000	0.412651
	5.705000	0.267948
	5.710000	0.281102
	5.715000	0.425806
	5.720000	0.409363
	5.725000	0.258081
	5.730000	0.277814
	5.735000	0.419229
	5.740000	0.402785
	5.745000	0.251504
	5.750000	0.271236
	5.755000	0.415940
	5.760000	0.396208
	5.765000	0.244927
	5.770000	0.264659
	5.775000	0.409363
	5.780000	0.392919
	5.785000	0.241638
	5.790000	0.261370
	5.795000	0.409363
	5.800000	0.389630
	5.805000	0.238349
	5.810000	0.261370
	5.815000	0.399496
	5.820000	0.373187
	5.825000	0.228483
	5.830000	0.251504
	5.835000	0.396208
	5.840000	0.373187
	5.845000	0.225194
	5.850000	0.241638
	5.855000	0.383053
	5.860000	0.363321
	5.865000	0.215328
	5.870000	0.235060
	5.875000	0.383053
	5.880000	0.363321
	5.885000	0.221905
	5.890000	0.244927
	5.895000	0.389630
	5.900000	0.363321
	5.905000	0.212039
	5.910000	0.238349
	5.915000	0.389630
	5.920000	0.356743
	5.925000	0.208751
	5.930000	0.238349
	5.935000	0.379764
	5.940000	0.353454
	5.945000	0.205462
	5.950000	0.231772
	5.955000	0.379764
	5.960000	0.350166
	5.965000	0.205462
	5.970000	0.231772
	5.975000	0.379764
	5.980000	0.346877
	5.985000	0.198884
	5.990000	0.225194
	5.995000	0.373187
	6.000000	0.353454
	6.005000	0.202173
	6.010000	0.231772
	6.015000	0.379764
	6.020000	0.346877
	6.025000	0.202173
	6.030000	0.228483
	6.035000	0.379764
	6.040000	0.350166
	6.045000	0.202173
	6.050000	0.228483
	6.055000	0.376475
	6.060000	0.346877
	6.065000	0.195596
	6.070000	0.225194
	6.075000	0.373187
	6.080000	0.343588
	6.085000	0.198884
	6.090000	0.231772
	6.095000	0.379764
	6.100000	0.346877
	6.105000	0.198884
	6.110000	0.228483
	6.115000	0.379764
	6.120000	0.346877
	6.125000	0.195596
	6.130000	0.228483
	6.135000	0.369898
	6.140000	0.337011
	6.145000	0.182441
	6.150000	0.221905
	6.155000	0.363321
	6.160000	0.330433
	6.165000	0.182441
	6.170000	0.212039
	6.175000	0.360032
	6.180000	0.323856
	6.185000	0.172575
	6.190000	0.208751
	6.195000	0.356743
	6.200000	0.317278
	6.205000	0.172575
	6.210000	0.198884
	6.215000	0.353454
	6.220000	0.317278
	6.225000	0.169286
	6.230000	0.202173
	6.235000	0.350166
	6.240000	0.310701
	6.245000	0.162708
	6.250000	0.198884
	6.255000	0.343588
	6.260000	0.313990
	6.265000	0.159420
	6.270000	0.195596
	6.275000	0.350166
	6.280000	0.310701
	6.285000	0.159420
	6.290000	0.195596
	6.295000	0.343588
	6.300000	0.307412
	6.305000	0.152842
	6.310000	0.192307
	6.315000	0.343588
	6.320000	0.304124
	6.325000	0.156131
	6.330000	0.195596
	6.335000	0.337011
	6.340000	0.304124
	6.345000	0.152842
	6.350000	0.195596
	6.355000	0.343588
	6.360000	0.297546
	6.365000	0.149554
	6.370000	0.195596
	6.375000	0.340299
	6.380000	0.294257
	6.385000	0.149554
	6.390000	0.189018
	6.395000	0.340299
	6.400000	0.297546
	6.405000	0.146265
	6.410000	0.189018
	6.415000	0.337011
	6.420000	0.290969
	6.425000	0.142976
	6.430000	0.189018
	6.435000	0.333722
	6.440000	0.290969
	6.445000	0.146265
	6.450000	0.185730
	6.455000	0.330433
	6.460000	0.287680
	6.465000	0.149554
	6.470000	0.192307
	6.475000	0.333722
	6.480000	0.287680
	6.485000	0.146265
	6.490000	0.189018
	6.495000	0.340299
	6.500000	0.287680
	6.505000	0.146265
	6.510000	0.189018
	6.515000	0.337011
	6.520000	0.287680
	6.525000	0.142976
	6.530000	0.185730
	6.535000	0.333722
	6.540000	0.284391
	6.545000	0.139687
	6.550000	0.192307
	6.555000	0.333722
	6.560000	0.281102
	6.565000	0.136399
	6.570000	0.185730
	6.575000	0.330433
	6.580000	0.284391
	6.585000	0.136399
	6.590000	0.185730
	6.595000	0.333722
	6.600000	0.274525
	6.605000	0.139687
	6.610000	0.189018
	6.615000	0.330433
	6.620000	0.281102
	6.625000	0.139687
	6.630000	0.189018
	6.635000	0.333722
	6.640000	0.281102
	6.645000	0.136399
	6.650000	0.189018
	6.655000	0.330433
	6.660000	0.281102
	6.665000	0.139687
	6.670000	0.189018
	6.675000	0.333722
	6.680000	0.284391
	6.685000	0.142976
	6.690000	0.195596
	6.695000	0.333722
	6.700000	0.281102
	6.705000	0.136399
	6.710000	0.195596
	6.715000	0.337011
	6.720000	0.284391
	6.725000	0.142976
	6.730000	0.192307
	6.735000	0.333722
	6.740000	0.284391
	6.745000	0.142976
	6.750000	0.195596
	6.755000	0.340299
	6.760000	0.287680
	6.765000	0.146265
	6.770000	0.202173
	6.775000	0.343588
	6.780000	0.287680
	6.785000	0.142976
	6.790000	0.205462
	6.795000	0.343588
	6.800000	0.294257
	6.805000	0.149554
	6.810000	0.212039
	6.815000	0.356743
	6.820000	0.300835
	6.825000	0.165997
	6.830000	0.221905
	6.835000	0.369898
	6.840000	0.313990
	6.845000	0.179152
	6.850000	0.235060
	6.855000	0.383053
	6.860000	0.337011
	6.865000	0.189018
	6.870000	0.258081
	6.875000	0.409363
	6.880000	0.346877
	6.885000	0.208751
	6.890000	0.274525
	6.895000	0.412651
	6.900000	0.353454
	6.905000	0.218617
	6.910000	0.274525
	6.915000	0.415940
	6.920000	0.350166
	6.925000	0.215328
	6.930000	0.267948
	6.935000	0.409363
	6.940000	0.350166
	6.945000	0.208751
	6.950000	0.271236
	6.955000	0.406074
	6.960000	0.340299
	6.965000	0.202173
	6.970000	0.261370
	6.975000	0.396208
	6.980000	0.333722
	6.985000	0.195596
	6.990000	0.258081
	6.995000	0.389630
	7.000000	0.327145
	7.005000	0.185730
	7.010000	0.244927
	7.015000	0.376475
	7.020000	0.317278
	7.025000	0.175863
	7.030000	0.235060
	7.035000	0.366609
	7.040000	0.297546
	7.045000	0.159420
	7.050000	0.221905
	7.055000	0.360032
	7.060000	0.287680
	7.065000	0.146265
	7.070000	0.208751
	7.075000	0.340299
	7.080000	0.277814
	7.085000	0.146265
	7.090000	0.218617
	7.095000	0.363321
	7.100000	0.313990
	7.105000	0.195596
	7.110000	0.271236
	7.115000	0.415940
	7.120000	0.360032
	7.125000	0.238349
	7.130000	0.307412
	7.135000	0.438961
	7.140000	0.386342
	7.145000	0.267948
	7.150000	0.327145
	7.155000	0.455405
	7.160000	0.396208
	7.165000	0.271236
	7.170000	0.330433
	7.175000	0.458694
	7.180000	0.399496
	7.185000	0.271236
	7.190000	0.333722
	7.195000	0.452116
	7.200000	0.396208
	7.205000	0.267948
	7.210000	0.327145
	7.215000	0.448827
	7.220000	0.392919
	7.225000	0.261370
	7.230000	0.313990
	7.235000	0.435672
	7.240000	0.373187
	7.245000	0.248215
	7.250000	0.304124
	7.255000	0.422518
	7.260000	0.356743
	7.265000	0.231772
	7.270000	0.284391
	7.275000	0.406074
	7.280000	0.340299
	7.285000	0.218617
	7.290000	0.274525
	7.295000	0.386342
	7.300000	0.320567
	7.305000	0.195596
	7.310000	0.258081
	7.315000	0.376475
	7.320000	0.320567
	7.325000	0.195596
	7.330000	0.258081
	7.335000	0.379764
	7.340000	0.313990
	7.345000	0.202173
	7.350000	0.264659
	7.355000	0.379764
	7.360000	0.320567
	7.365000	0.195596
	7.370000	0.254793
	7.375000	0.373187
	7.380000	0.304124
	7.385000	0.185730
	7.390000	0.235060
	7.395000	0.353454
	7.400000	0.284391
	7.405000	0.152842
	7.410000	0.205462
	7.415000	0.310701
	7.420000	0.235060
	7.425000	0.103511
	7.430000	0.149554
	7.435000	0.241638
	7.440000	0.149554
	7.445000	-0.001728
	7.450000	0.004850
	7.455000	0.054181
	7.460000	-0.060925
	7.465000	-0.215495
	7.470000	-0.189185
	7.475000	-0.093812
	7.480000	-0.179319
	7.485000	-0.314156
	7.490000	-0.284558
	7.495000	-0.185896
	7.500000	-0.251671
	7.505000	-0.360198
	7.510000	-0.304290
	7.515000	-0.202340
	7.520000	-0.248382
	7.525000	-0.343755
	7.530000	-0.268114
	7.535000	-0.139854
	7.540000	-0.176030
	7.545000	-0.258248
	7.550000	-0.185896
	7.555000	-0.054347
	7.560000	-0.083946
	7.565000	-0.166164
	7.570000	-0.087234
	7.575000	0.041026
	7.580000	0.011427
	7.585000	-0.077368
	7.590000	0.008138
	7.595000	0.133110
	7.600000	0.103511
	7.605000	0.024582
	7.610000	0.106800
	7.615000	0.235060
	7.620000	0.202173
	7.625000	0.116666
	7.630000	0.198884
	7.635000	0.323856
	7.640000	0.281102
	7.645000	0.182441
	7.650000	0.254793
	7.655000	0.363321
	7.660000	0.310701
	7.665000	0.205462
	7.670000	0.274525
	7.675000	0.383053
	7.680000	0.327145
	7.685000	0.225194
	7.690000	0.297546
	7.695000	0.412651
	7.700000	0.343588
	7.705000	0.228483
	7.710000	0.290969
	7.715000	0.399496
	7.720000	0.337011
	7.725000	0.221905
	7.730000	0.294257
	7.735000	0.406074
	7.740000	0.337011
	7.745000	0.215328
	7.750000	0.277814
	7.755000	0.379764
	7.760000	0.304124
	7.765000	0.185730
	7.770000	0.244927
	7.775000	0.343588
	7.780000	0.277814
	7.785000	0.159420
	7.790000	0.231772
	7.795000	0.333722
	7.800000	0.267948
	7.805000	0.156131
	7.810000	0.225194
	7.815000	0.333722
	7.820000	0.264659
	7.825000	0.159420
	7.830000	0.221905
	7.835000	0.333722
	7.840000	0.258081
	7.845000	0.156131
	7.850000	0.231772
	7.855000	0.346877
	7.860000	0.277814
	7.865000	0.169286
	7.870000	0.241638
	7.875000	0.360032
	7.880000	0.287680
	7.885000	0.172575
	7.890000	0.248215
	7.895000	0.360032
	7.900000	0.287680
	7.905000	0.175863
	7.910000	0.248215
	7.915000	0.360032
	7.920000	0.281102
	7.925000	0.169286
	7.930000	0.251504
	7.935000	0.363321
	7.940000	0.277814
	7.945000	0.165997
	7.950000	0.248215
	7.955000	0.360032
	7.960000	0.277814
	7.965000	0.159420
	7.970000	0.238349
	7.975000	0.353454
	7.980000	0.274525
	7.985000	0.156131
	7.990000	0.235060
	7.995000	0.350166
	8.000000	0.271236
	8.005000	0.156131
	8.010000	0.241638
	8.015000	0.353454
	8.020000	0.274525
	8.025000	0.156131
	8.030000	0.244927
	8.035000	0.363321
	8.040000	0.281102
	8.045000	0.169286
	8.050000	0.258081
	8.055000	0.369898
	8.060000	0.287680
	8.065000	0.169286
	8.070000	0.264659
	8.075000	0.383053
	8.080000	0.290969
	8.085000	0.182441
	8.090000	0.277814
	8.095000	0.389630
	8.100000	0.304124
	8.105000	0.198884
	8.110000	0.284391
	8.115000	0.402785
	8.120000	0.307412
	8.125000	0.192307
	8.130000	0.284391
	8.135000	0.392919
	8.140000	0.300835
	8.145000	0.189018
	8.150000	0.281102
	8.155000	0.399496
	8.160000	0.297546
	8.165000	0.189018
	8.170000	0.281102
	8.175000	0.396208
	8.180000	0.304124
	8.185000	0.185730
	8.190000	0.281102
	8.195000	0.396208
	8.200000	0.304124
	8.205000	0.185730
	8.210000	0.281102
	8.215000	0.396208
	8.220000	0.300835
	8.225000	0.182441
	8.230000	0.277814
	8.235000	0.392919
	8.240000	0.294257
	8.245000	0.175863
	8.250000	0.274525
	8.255000	0.386342
	8.260000	0.287680
	8.265000	0.169286
	8.270000	0.264659
	8.275000	0.379764
	8.280000	0.274525
	8.285000	0.162708
	8.290000	0.261370
	8.295000	0.369898
	8.300000	0.277814
	8.305000	0.156131
	8.310000	0.261370
	8.315000	0.369898
	8.320000	0.264659
	8.325000	0.159420
	8.330000	0.261370
	8.335000	0.373187
	8.340000	0.267948
	8.345000	0.152842
	8.350000	0.254793
	8.355000	0.366609
	8.360000	0.261370
	8.365000	0.149554
	8.370000	0.251504
	8.375000	0.360032
	8.380000	0.261370
	8.385000	0.142976
	8.390000	0.244927
	8.395000	0.360032
	8.400000	0.251504
	8.405000	0.146265
	8.410000	0.248215
	8.415000	0.360032
	8.420000	0.248215
	8.425000	0.139687
	8.430000	0.241638
	8.435000	0.353454
	8.440000	0.251504
	8.445000	0.136399
	8.450000	0.238349
	8.455000	0.350166
	8.460000	0.241638
	8.465000	0.136399
	8.470000	0.235060
	8.475000	0.343588
	8.480000	0.241638
	8.485000	0.126533
	8.490000	0.231772
	8.495000	0.340299
	8.500000	0.235060
	8.505000	0.123244
	8.510000	0.228483
	8.515000	0.337011
	8.520000	0.228483
	8.525000	0.123244
	8.530000	0.218617
	8.535000	0.330433
	8.540000	0.221905
	8.545000	0.113378
	8.550000	0.221905
	8.555000	0.323856
	8.560000	0.218617
	8.565000	0.110089
	8.570000	0.218617
	8.575000	0.323856
	8.580000	0.218617
	8.585000	0.106800
	8.590000	0.212039
	8.595000	0.320567
	8.600000	0.215328
	8.605000	0.106800
	8.610000	0.208751
	8.615000	0.320567
	8.620000	0.208751
	8.625000	0.103511
	8.630000	0.212039
	8.635000	0.320567
	8.640000	0.215328
	8.645000	0.106800
	8.650000	0.212039
	8.655000	0.320567
	8.660000	0.212039
	8.665000	0.103511
	8.670000	0.212039
	8.675000	0.313990
	8.680000	0.208751
	8.685000	0.100223
	8.690000	0.205462
	8.695000	0.317278
	8.700000	0.208751
	8.705000	0.106800
	8.710000	0.215328
	8.715000	0.320567
	8.720000	0.208751
	8.725000	0.100223
	8.730000	0.208751
	8.735000	0.317278
	8.740000	0.205462
	8.745000	0.103511
	8.750000	0.208751
	8.755000	0.310701
	8.760000	0.202173
	8.765000	0.103511
	8.770000	0.215328
	8.775000	0.313990
	8.780000	0.205462
	8.785000	0.103511
	8.790000	0.215328
	8.795000	0.323856
	8.800000	0.212039
	8.805000	0.110089
	8.810000	0.221905
	8.815000	0.323856
	8.820000	0.215328
	8.825000	0.110089
	8.830000	0.221905
	8.835000	0.320567
	8.840000	0.212039
	8.845000	0.110089
	8.850000	0.225194
	8.855000	0.327145
	8.860000	0.215328
	8.865000	0.110089
	8.870000	0.225194
	8.875000	0.327145
	8.880000	0.215328
	8.885000	0.116666
	8.890000	0.225194
	8.895000	0.327145
	8.900000	0.208751
	8.905000	0.119955
	8.910000	0.231772
	8.915000	0.333722
	8.920000	0.221905
	8.925000	0.123244
	8.930000	0.231772
	8.935000	0.330433
	8.940000	0.221905
	8.945000	0.123244
	8.950000	0.238349
	8.955000	0.330433
	8.960000	0.221905
	8.965000	0.123244
	8.970000	0.238349
	8.975000	0.343588
	8.980000	0.221905
	8.985000	0.126533
	8.990000	0.241638
	8.995000	0.340299
	9.000000	0.221905
	9.005000	0.123244
	9.010000	0.241638
	9.015000	0.333722
	9.020000	0.225194
	9.025000	0.126533
	9.030000	0.241638
	9.035000	0.340299
	9.040000	0.228483
	9.045000	0.129821
	9.050000	0.244927
	9.055000	0.340299
	9.060000	0.228483
	9.065000	0.129821
	9.070000	0.248215
	9.075000	0.346877
	9.080000	0.231772
	9.085000	0.136399
	9.090000	0.251504
	9.095000	0.346877
	9.100000	0.231772
	9.105000	0.139687
	9.110000	0.261370
	9.115000	0.356743
	9.120000	0.244927
	9.125000	0.142976
	9.130000	0.264659
	9.135000	0.363321
	9.140000	0.244927
	9.145000	0.149554
	9.150000	0.267948
	9.155000	0.360032
	9.160000	0.244927
	9.165000	0.146265
	9.170000	0.267948
	9.175000	0.360032
	9.180000	0.241638
	9.185000	0.146265
	9.190000	0.267948
	9.195000	0.360032
	9.200000	0.238349
	9.205000	0.146265
	9.210000	0.267948
	9.215000	0.356743
	9.220000	0.241638
	9.225000	0.146265
	9.230000	0.267948
	9.235000	0.356743
	9.240000	0.235060
	9.245000	0.146265
	9.250000	0.261370
	9.255000	0.356743
	9.260000	0.235060
	9.265000	0.142976
	9.270000	0.261370
	9.275000	0.353454
	9.280000	0.231772
	9.285000	0.139687
	9.290000	0.261370
	9.295000	0.353454
	9.300000	0.235060
	9.305000	0.139687
	9.310000	0.261370
	9.315000	0.353454
	9.320000	0.231772
	9.325000	0.136399
	9.330000	0.261370
	9.335000	0.353454
	9.340000	0.228483
	9.345000	0.139687
	9.350000	0.261370
	9.355000	0.353454
	9.360000	0.225194
	9.365000	0.142976
	9.370000	0.261370
	9.375000	0.350166
	9.380000	0.225194
	9.385000	0.139687
	9.390000	0.264659
	9.395000	0.346877
	9.400000	0.225194
	9.405000	0.142976
	9.410000	0.258081
	9.415000	0.350166
	9.420000	0.225194
	9.425000	0.139687
	9.430000	0.264659
	9.435000	0.353454
	9.440000	0.225194
	9.445000	0.139687
	9.450000	0.267948
	9.455000	0.353454
	9.460000	0.228483
	9.465000	0.142976
	9.470000	0.274525
	9.475000	0.353454
	9.480000	0.228483
	9.485000	0.149554
	9.490000	0.274525
	9.495000	0.356743
	9.500000	0.235060
	9.505000	0.152842
	9.510000	0.281102
	9.515000	0.363321
	9.520000	0.241638
	9.525000	0.156131
	9.530000	0.284391
	9.535000	0.366609
	9.540000	0.241638
	9.545000	0.156131
	9.550000	0.287680
	9.555000	0.376475
	9.560000	0.248215
	9.565000	0.165997
	9.570000	0.297546
	9.575000	0.379764
	9.580000	0.251504
	9.585000	0.169286
	9.590000	0.300835
	9.595000	0.389630
	9.600000	0.261370
	9.605000	0.182441
	9.610000	0.307412
	9.615000	0.389630
	9.620000	0.264659
	9.625000	0.182441
	9.630000	0.313990
	9.635000	0.396208
	9.640000	0.264659
	9.645000	0.185730
	9.650000	0.313990
	9.655000	0.392919
	9.660000	0.261370
	9.665000	0.182441
	9.670000	0.307412
	9.675000	0.392919
	9.680000	0.261370
	9.685000	0.179152
	9.690000	0.307412
	9.695000	0.386342
	9.700000	0.258081
	9.705000	0.175863
	9.710000	0.300835
	9.715000	0.383053
	9.720000	0.254793
	9.725000	0.172575
	9.730000	0.300835
	9.735000	0.379764
	9.740000	0.248215
	9.745000	0.169286
	9.750000	0.290969
	9.755000	0.373187
	9.760000	0.235060
	9.765000	0.159420
	9.770000	0.290969
	9.775000	0.366609
	9.780000	0.238349
	9.785000	0.156131
	9.790000	0.290969
	9.795000	0.363321
	9.800000	0.231772
	9.805000	0.156131
	9.810000	0.284391
	9.815000	0.360032
	9.820000	0.231772
	9.825000	0.152842
	9.830000	0.287680
	9.835000	0.356743
	9.840000	0.225194
	9.845000	0.156131
	9.850000	0.277814
	9.855000	0.360032
	9.860000	0.221905
	9.865000	0.149554
	9.870000	0.274525
	9.875000	0.350166
	9.880000	0.218617
	9.885000	0.146265
	9.890000	0.274525
	9.895000	0.346877
	9.900000	0.215328
	9.905000	0.142976
	9.910000	0.274525
	9.915000	0.346877
	9.920000	0.215328
	9.925000	0.136399
	9.930000	0.267948
	9.935000	0.340299
	9.940000	0.202173
	9.945000	0.129821
	9.950000	0.254793
	9.955000	0.323856
	9.960000	0.192307
	9.965000	0.116666
	9.970000	0.244927
	9.975000	0.317278
	9.980000	0.179152
	9.985000	0.110089
	9.990000	0.228483
	9.995000	0.290969
	10.000000	0.152842
	10.005000	0.077202
	10.010000	0.185730
	10.015000	0.238349
	10.020000	0.100223
	10.025000	0.011427
	10.030000	0.113378
	10.035000	0.169286
	10.040000	0.037737
	10.045000	-0.047770
	10.050000	0.060758
	10.055000	0.116666
	10.060000	-0.021460
	10.065000	-0.100389
	10.070000	-0.001728
	10.075000	0.050892
	10.080000	-0.097101
	10.085000	-0.179319
	10.090000	-0.090523
	10.095000	-0.047770
	10.100000	-0.185896
	10.105000	-0.277980
	10.110000	-0.189185
	10.115000	-0.159586
	10.120000	-0.320734
	10.125000	-0.429262
	10.130000	-0.353621
	10.135000	-0.307579
	10.140000	-0.442417
	10.145000	-0.527923
	10.150000	-0.442417
	10.155000	-0.389797
	10.160000	-0.514768
	10.165000	-0.580543
	10.170000	-0.481881
	10.175000	-0.425973
	10.180000	-0.541078
	10.185000	-0.600275
	10.190000	-0.495036
	10.195000	-0.432550
	10.200000	-0.527923
	10.205000	-0.573965
	10.210000	-0.455571
	10.215000	-0.376642
	10.220000	-0.465438
	10.225000	-0.504902
	10.230000	-0.379931
	10.235000	-0.294424
	10.240000	-0.376642
	10.245000	-0.409529
	10.250000	-0.277980
	10.255000	-0.199051
	10.260000	-0.281269
	10.265000	-0.314156
	10.270000	-0.189185
	10.275000	-0.113544
	10.280000	-0.192474
	10.285000	-0.222072
	10.290000	-0.093812
	10.295000	-0.008305
	10.300000	-0.087234
	10.305000	-0.120122
	10.310000	0.004850
	10.315000	0.083779
	10.320000	0.011427
	10.325000	-0.014883
	10.330000	0.119955
	10.335000	0.212039
	10.340000	0.159420
	10.345000	0.146265
	10.350000	0.297546
	10.355000	0.396208
	10.360000	0.330433
	10.365000	0.304124
	10.370000	0.435672
	10.375000	0.514602
	10.380000	0.425806
	10.385000	0.383053
	10.390000	0.501447
	10.395000	0.563933
	10.400000	0.458694
	10.405000	0.412651
	10.410000	0.524468
	10.415000	0.577088
	10.420000	0.465271
	10.425000	0.409363
	10.430000	0.517891
	10.435000	0.563933
	10.440000	0.445539
	10.445000	0.383053
	10.450000	0.491581
	10.455000	0.534334
	10.460000	0.412651
	10.465000	0.353454
	10.470000	0.461982
	10.475000	0.511313
	10.480000	0.396208
	10.485000	0.333722
	10.490000	0.438961
	10.495000	0.471848
	10.500000	0.340299
	10.505000	0.277814
	10.510000	0.383053
	10.515000	0.412651
	10.520000	0.267948
	10.525000	0.202173
	10.530000	0.307412
	10.535000	0.346877
	10.540000	0.225194
	10.545000	0.169286
	10.550000	0.284391
	10.555000	0.330433
	10.560000	0.215328
	10.565000	0.152842
	10.570000	0.281102
	10.575000	0.333722
	10.580000	0.208751
	10.585000	0.159420
	10.590000	0.290969
	10.595000	0.337011
	10.600000	0.218617
	10.605000	0.169286
	10.610000	0.290969
	10.615000	0.343588
	10.620000	0.218617
	10.625000	0.169286
	10.630000	0.290969
	10.635000	0.340299
	10.640000	0.208751
	10.645000	0.162708
	10.650000	0.281102
	10.655000	0.333722
	10.660000	0.215328
	10.665000	0.175863
	10.670000	0.317278
	10.675000	0.369898
	10.680000	0.251504
	10.685000	0.205462
	10.690000	0.343588
	10.695000	0.392919
	10.700000	0.264659
	10.705000	0.212039
	10.710000	0.343588
	10.715000	0.392919
	10.720000	0.277814
	10.725000	0.238349
	10.730000	0.369898
	10.735000	0.425806
	10.740000	0.297546
	10.745000	0.258081
	10.750000	0.406074
	10.755000	0.465271
	10.760000	0.333722
	10.765000	0.294257
	10.770000	0.425806
	10.775000	0.478426
	10.780000	0.340299
	10.785000	0.294257
	10.790000	0.432384
	10.795000	0.478426
	10.800000	0.346877
	10.805000	0.297546
	10.810000	0.432384
	10.815000	0.475137
	10.820000	0.333722
	10.825000	0.284391
	10.830000	0.425806
	10.835000	0.471848
	10.840000	0.330433
	10.845000	0.274525
	10.850000	0.412651
	10.855000	0.458694
	10.860000	0.310701
	10.865000	0.267948
	10.870000	0.402785
	10.875000	0.442250
	10.880000	0.304124
	10.885000	0.248215
	10.890000	0.386342
	10.895000	0.432384
	10.900000	0.287680
	10.905000	0.238349
	10.910000	0.386342
	10.915000	0.425806
	10.920000	0.281102
	10.925000	0.231772
	10.930000	0.369898
	10.935000	0.412651
	10.940000	0.267948
	10.945000	0.231772
	10.950000	0.363321
	10.955000	0.406074
	10.960000	0.258081
	10.965000	0.212039
	10.970000	0.356743
	10.975000	0.402785
	10.980000	0.248215
	10.985000	0.208751
	10.990000	0.350166
	10.995000	0.392919
	11.000000	0.248215
	11.005000	0.205462
	11.010000	0.346877
	11.015000	0.386342
	11.020000	0.238349
	11.025000	0.195596
	11.030000	0.337011
	11.035000	0.376475
	11.040000	0.231772
	11.045000	0.192307
	11.050000	0.337011
	11.055000	0.376475
	11.060000	0.228483
	11.065000	0.189018
	11.070000	0.330433
	11.075000	0.369898
	11.080000	0.228483
	11.085000	0.179152
	11.090000	0.330433
	11.095000	0.363321
	11.100000	0.215328
	11.105000	0.175863
	11.110000	0.323856
	11.115000	0.356743
	11.120000	0.208751
	11.125000	0.172575
	11.130000	0.313990
	11.135000	0.356743
	11.140000	0.205462
	11.145000	0.162708
	11.150000	0.307412
	11.155000	0.346877
	11.160000	0.195596
	11.165000	0.156131
	11.170000	0.300835
	11.175000	0.343588
	11.180000	0.185730
	11.185000	0.146265
	11.190000	0.294257
	11.195000	0.333722
	11.200000	0.175863
	11.205000	0.146265
	11.210000	0.294257
	11.215000	0.327145
	11.220000	0.175863
	11.225000	0.142976
	11.230000	0.294257
	11.235000	0.327145
	11.240000	0.182441
	11.245000	0.142976
	11.250000	0.300835
	11.255000	0.327145
	11.260000	0.182441
	11.265000	0.146265
	11.270000	0.290969
	11.275000	0.323856
	11.280000	0.175863
	11.285000	0.142976
	11.290000	0.287680
	11.295000	0.327145
	11.300000	0.175863
	11.305000	0.146265
	11.310000	0.290969
	11.315000	0.323856
	11.320000	0.179152
	11.325000	0.146265
	11.330000	0.297546
	11.335000	0.327145
	11.340000	0.179152
	11.345000	0.146265
	11.350000	0.287680
	11.355000	0.320567
	11.360000	0.165997
	11.365000	0.139687
	11.370000	0.277814
	11.375000	0.310701
	11.380000	0.159420
	11.385000	0.133110
	11.390000	0.277814
	11.395000	0.304124
	11.400000	0.156131
	11.405000	0.119955
	11.410000	0.271236
	11.415000	0.294257
	11.420000	0.146265
	11.425000	0.116666
	11.430000	0.267948
	11.435000	0.290969
	11.440000	0.139687
	11.445000	0.110089
	11.450000	0.258081
	11.455000	0.287680
	11.460000	0.139687
	11.465000	0.113378
	11.470000	0.261370
	11.475000	0.281102
	11.480000	0.136399
	11.485000	0.110089
	11.490000	0.261370
	11.495000	0.284391
	11.500000	0.139687
	11.505000	0.106800
	11.510000	0.258081
	11.515000	0.284391
	11.520000	0.136399
	11.525000	0.110089
	11.530000	0.261370
	11.535000	0.287680
	11.540000	0.139687
	11.545000	0.113378
	11.550000	0.261370
	11.555000	0.290969
	11.560000	0.142976
	11.565000	0.119955
	11.570000	0.267948
	11.575000	0.290969
	11.580000	0.146265
	11.585000	0.119955
	11.590000	0.271236
	11.595000	0.297546
	11.600000	0.142976
	11.605000	0.123244
	11.610000	0.274525
	11.615000	0.290969
	11.620000	0.146265
	11.625000	0.123244
	11.630000	0.267948
	11.635000	0.290969
	11.640000	0.139687
	11.645000	0.119955
	11.650000	0.267948
	11.655000	0.290969
	11.660000	0.142976
	11.665000	0.119955
	11.670000	0.277814
	11.675000	0.297546
	11.680000	0.142976
	11.685000	0.119955
	11.690000	0.277814
	11.695000	0.294257
	11.700000	0.142976
	11.705000	0.126533
	11.710000	0.277814
	11.715000	0.297546
	11.720000	0.149554
	11.725000	0.126533
	11.730000	0.274525
	11.735000	0.294257
	11.740000	0.142976
	11.745000	0.126533
	11.750000	0.277814
	11.755000	0.294257
	11.760000	0.146265
	11.765000	0.126533
	11.770000	0.274525
	11.775000	0.294257
	11.780000	0.142976
	11.785000	0.126533
	11.790000	0.281102
	11.795000	0.294257
	11.800000	0.142976
	11.805000	0.133110
	11.810000	0.277814
	11.815000	0.300835
	11.820000	0.142976
	11.825000	0.133110
	11.830000	0.281102
	11.835000	0.297546
	11.840000	0.146265
	11.845000	0.129821
	11.850000	0.284391
	11.855000	0.294257
	11.860000	0.146265
	11.865000	0.136399
	11.870000	0.290969
	11.875000	0.300835
	11.880000	0.149554
	11.885000	0.136399
	11.890000	0.287680
	11.895000	0.300835
	11.900000	0.149554
	11.905000	0.136399
	11.910000	0.287680
	11.915000	0.297546
	11.920000	0.149554
	11.925000	0.133110
	11.930000	0.287680
	11.935000	0.300835
	11.940000	0.152842
	11.945000	0.139687
	11.950000	0.290969
	11.955000	0.297546
	11.960000	0.149554
	11.965000	0.142976
	11.970000	0.294257
	11.975000	0.304124
	11.980000	0.159420
	11.985000	0.146265
	11.990000	0.297546
	11.995000	0.307412
	12.000000	0.159420
	12.005000	0.152842
	12.010000	0.304124
	12.015000	0.317278
	12.020000	0.169286
	12.025000	0.165997
	12.030000	0.320567
	12.035000	0.333722
	12.040000	0.182441
	12.045000	0.179152
	12.050000	0.333722
	12.055000	0.343588
	12.060000	0.195596
	12.065000	0.189018
	12.070000	0.337011
	12.075000	0.350166
	12.080000	0.202173
	12.085000	0.198884
	12.090000	0.350166
	12.095000	0.353454
	12.100000	0.205462
	12.105000	0.198884
	12.110000	0.350166
	12.115000	0.363321
	12.120000	0.208751
	12.125000	0.208751
	12.130000	0.353454
	12.135000	0.360032
	12.140000	0.208751
	12.145000	0.198884
	12.150000	0.353454
	12.155000	0.353454
	12.160000	0.205462
	12.165000	0.202173
	12.170000	0.346877
	12.175000	0.360032
	12.180000	0.202173
	12.185000	0.192307
	12.190000	0.340299
	12.195000	0.353454
	12.200000	0.195596
	12.205000	0.192307
	12.210000	0.340299
	12.215000	0.343588
	12.220000	0.192307
	12.225000	0.189018
	12.230000	0.350166
	12.235000	0.353454
	12.240000	0.195596
	12.245000	0.195596
	12.250000	0.350166
	12.255000	0.353454
	12.260000	0.212039
	12.265000	0.208751
	12.270000	0.366609
	12.275000	0.369898
	12.280000	0.221905
	12.285000	0.218617
	12.290000	0.373187
	12.295000	0.373187
	12.300000	0.221905
	12.305000	0.218617
	12.310000	0.373187
	12.315000	0.376475
	12.320000	0.221905
	12.325000	0.225194
	12.330000	0.376475
	12.335000	0.373187
	12.340000	0.225194
	12.345000	0.215328
	12.350000	0.369898
	12.355000	0.369898
	12.360000	0.212039
	12.365000	0.212039
	12.370000	0.363321
	12.375000	0.360032
	12.380000	0.202173
	12.385000	0.202173
	12.390000	0.356743
	12.395000	0.346877
	12.400000	0.189018
	12.405000	0.185730
	12.410000	0.333722
	12.415000	0.327145
	12.420000	0.169286
	12.425000	0.172575
	12.430000	0.317278
	12.435000	0.310701
	12.440000	0.159420
	12.445000	0.159420
	12.450000	0.307412
	12.455000	0.307412
	12.460000	0.156131
	12.465000	0.156131
	12.470000	0.300835
	12.475000	0.297546
	12.480000	0.146265
	12.485000	0.142976
	12.490000	0.287680
	12.495000	0.274525
	12.500000	0.116666
	12.505000	0.113378
	12.510000	0.244927
	12.515000	0.225194
	12.520000	0.073913
	12.525000	0.054181
	12.530000	0.179152
	12.535000	0.159420
	12.540000	-0.005016
	12.545000	-0.024749
	12.550000	0.087068
	12.555000	0.057469
	12.560000	-0.106967
	12.565000	-0.136565
	12.570000	-0.031326
	12.575000	-0.067502
	12.580000	-0.254959
	12.585000	-0.333889
	12.590000	-0.271403
	12.595000	-0.350332
	12.600000	-0.550944
	12.605000	-0.606853
	12.610000	-0.518057
	12.615000	-0.560811
	12.620000	-0.725247
	12.625000	-0.738402
	12.630000	-0.606853
	12.635000	-0.603564
	12.640000	-0.721958
	12.645000	-0.695648
	12.650000	-0.554233
	12.655000	-0.550944
	12.660000	-0.675916
	12.665000	-0.672627
	12.670000	-0.544367
	12.675000	-0.537790
	12.680000	-0.659472
	12.685000	-0.659472
	12.690000	-0.524635
	12.695000	-0.518057
	12.700000	-0.633162
	12.705000	-0.620008
	12.710000	-0.485170
	12.715000	-0.465438
	12.720000	-0.570677
	12.725000	-0.550944
	12.730000	-0.419395
	12.735000	-0.399663
	12.740000	-0.501614
	12.745000	-0.478592
	12.750000	-0.343755
	12.755000	-0.327311
	12.760000	-0.416107
	12.765000	-0.396374
	12.770000	-0.254959
	12.775000	-0.228650
	12.780000	-0.307579
	12.785000	-0.277980
	12.790000	-0.143143
	12.795000	-0.110256
	12.800000	-0.189185
	12.805000	-0.149720
	12.810000	-0.005016
	12.815000	0.031160
	12.820000	-0.041192
	12.825000	0.008138
	12.830000	0.162708
	12.835000	0.208751
	12.840000	0.149554
	12.845000	0.205462
	12.850000	0.373187
	12.855000	0.419229
	12.860000	0.350166
	12.865000	0.386342
	12.870000	0.534334
	12.875000	0.547489
	12.880000	0.455405
	12.885000	0.475137
	12.890000	0.603397
	12.895000	0.603397
	12.900000	0.488292
	12.905000	0.498158
	12.910000	0.619841
	12.915000	0.609975
	12.920000	0.494869
	12.925000	0.508024
	12.930000	0.623130
	12.935000	0.616552
	12.940000	0.501447
	12.945000	0.521179
	12.950000	0.656017
	12.955000	0.652728
	12.960000	0.527757
	12.965000	0.521179
	12.970000	0.632996
	12.975000	0.616552
	12.980000	0.485003
	12.985000	0.471848
	12.990000	0.567221
	12.995000	0.537623
	13.000000	0.392919
	13.005000	0.386342
	13.010000	0.494869
	13.015000	0.458694
	13.020000	0.313990
	13.025000	0.317278
	13.030000	0.438961
	13.035000	0.415940
	13.040000	0.284391
	13.045000	0.297546
	13.050000	0.419229
	13.055000	0.396208
	13.060000	0.267948
	13.065000	0.284391
	13.070000	0.406074
	13.075000	0.389630
	13.080000	0.251504
	13.085000	0.261370
	13.090000	0.386342
	13.095000	0.366609
	13.100000	0.225194
	13.105000	0.241638
	13.110000	0.366609
	13.115000	0.343588
	13.120000	0.208751
	13.125000	0.235060
	13.130000	0.369898
	13.135000	0.353454
	13.140000	0.221905
	13.145000	0.241638
	13.150000	0.379764
	13.155000	0.360032
	13.160000	0.235060
	13.165000	0.261370
	13.170000	0.402785
	13.175000	0.379764
	13.180000	0.235060
	13.185000	0.267948
	13.190000	0.409363
	13.195000	0.396208
	13.200000	0.261370
	13.205000	0.287680
	13.210000	0.432384
	13.215000	0.409363
	13.220000	0.274525
	13.225000	0.300835
	13.230000	0.438961
	13.235000	0.409363
	13.240000	0.267948
	13.245000	0.294257
	13.250000	0.432384
	13.255000	0.406074
	13.260000	0.258081
	13.265000	0.290969
	13.270000	0.425806
	13.275000	0.392919
	13.280000	0.248215
	13.285000	0.274525
	13.290000	0.419229
	13.295000	0.383053
	13.300000	0.241638
	13.305000	0.267948
	13.310000	0.402785
	13.315000	0.366609
	13.320000	0.221905
	13.325000	0.248215
	13.330000	0.389630
	13.335000	0.356743
	13.340000	0.215328
	13.345000	0.238349
	13.350000	0.386342
	13.355000	0.353454
	13.360000	0.212039
	13.365000	0.248215
	13.370000	0.392919
	13.375000	0.360032
	13.380000	0.215328
	13.385000	0.251504
	13.390000	0.392919
	13.395000	0.360032
	13.400000	0.212039
	13.405000	0.251504
	13.410000	0.396208
	13.415000	0.356743
	13.420000	0.202173
	13.425000	0.244927
	13.430000	0.383053
	13.435000	0.346877
	13.440000	0.202173
	13.445000	0.235060
	13.450000	0.383053
	13.455000	0.343588
	13.460000	0.192307
	13.465000	0.238349
	13.470000	0.386342
	13.475000	0.343588
	13.480000	0.198884
	13.485000	0.238349
	13.490000	0.379764
	13.495000	0.340299
	13.500000	0.195596
	13.505000	0.231772
	13.510000	0.376475
	13.515000	0.340299
	13.520000	0.192307
	13.525000	0.235060
	13.530000	0.379764
	13.535000	0.337011
	13.540000	0.195596
	13.545000	0.231772
	13.550000	0.376475
	13.555000	0.340299
	13.560000	0.192307
	13.565000	0.231772
	13.570000	0.379764
	13.575000	0.333722
	13.580000	0.189018
	13.585000	0.235060
	13.590000	0.376475
	13.595000	0.330433
	13.600000	0.182441
	13.605000	0.225194
	13.610000	0.369898
	13.615000	0.327145
	13.620000	0.179152
	13.625000	0.221905
	13.630000	0.369898
	13.635000	0.320567
	13.640000	0.169286
	13.645000	0.218617
	13.650000	0.363321
	13.655000	0.313990
	13.660000	0.172575
	13.665000	0.215328
	13.670000	0.353454
	13.675000	0.310701
	13.680000	0.162708
	13.685000	0.205462
	13.690000	0.346877
	13.695000	0.304124
	13.700000	0.152842
	13.705000	0.205462
	13.710000	0.350166
	13.715000	0.300835
	13.720000	0.156131
	13.725000	0.198884
	13.730000	0.343588
	13.735000	0.294257
	13.740000	0.149554
	13.745000	0.195596
	13.750000	0.333722
	13.755000	0.284391
	13.760000	0.139687
	13.765000	0.185730
	13.770000	0.323856
	13.775000	0.274525
	13.780000	0.133110
	13.785000	0.175863
	13.790000	0.313990
	13.795000	0.267948
	13.800000	0.126533
	13.805000	0.169286
	13.810000	0.313990
	13.815000	0.261370
	13.820000	0.119955
	13.825000	0.175863
	13.830000	0.320567
	13.835000	0.264659
	13.840000	0.126533
	13.845000	0.175863
	13.850000	0.310701
	13.855000	0.261370
	13.860000	0.113378
	13.865000	0.172575
	13.870000	0.313990
	13.875000	0.261370
	13.880000	0.123244
	13.885000	0.169286
	13.890000	0.313990
	13.895000	0.261370
	13.900000	0.116666
	13.905000	0.175863
	13.910000	0.320567
	13.915000	0.267948
	13.920000	0.123244
	13.925000	0.179152
	13.930000	0.323856
	13.935000	0.267948
	13.940000	0.126533
	13.945000	0.185730
	13.950000	0.330433
	13.955000	0.274525
	13.960000	0.129821
	13.965000	0.189018
	13.970000	0.327145
	13.975000	0.274525
	13.980000	0.129821
	13.985000	0.185730
	13.990000	0.330433
	13.995000	0.274525
	14.000000	0.133110
	14.005000	0.192307
	14.010000	0.330433
	14.015000	0.274525
	14.020000	0.133110
	14.025000	0.189018
	14.030000	0.330433
	14.035000	0.274525
	14.040000	0.133110
	14.045000	0.185730
	14.050000	0.323856
	14.055000	0.267948
	14.060000	0.129821
	14.065000	0.185730
	14.070000	0.327145
	14.075000	0.264659
	14.080000	0.129821
	14.085000	0.185730
	14.090000	0.327145
	14.095000	0.264659
	14.100000	0.123244
	14.105000	0.185730
	14.110000	0.320567
	14.115000	0.264659
	14.120000	0.126533
	14.125000	0.185730
	14.130000	0.323856
	14.135000	0.264659
	14.140000	0.123244
	14.145000	0.189018
	14.150000	0.320567
	14.155000	0.258081
	14.160000	0.119955
	14.165000	0.182441
	14.170000	0.323856
	14.175000	0.261370
	14.180000	0.119955
	14.185000	0.182441
	14.190000	0.323856
	14.195000	0.258081
	14.200000	0.123244
	14.205000	0.182441
	14.210000	0.313990
	14.215000	0.254793
	14.220000	0.119955
	14.225000	0.182441
	14.230000	0.323856
	14.235000	0.258081
	14.240000	0.123244
	14.245000	0.182441
	14.250000	0.323856
	14.255000	0.258081
	14.260000	0.119955
	14.265000	0.182441
	14.270000	0.320567
	14.275000	0.254793
	14.280000	0.123244
	14.285000	0.189018
	14.290000	0.323856
	14.295000	0.258081
	14.300000	0.119955
	14.305000	0.189018
	14.310000	0.320567
	14.315000	0.258081
	14.320000	0.126533
	14.325000	0.189018
	14.330000	0.320567
	14.335000	0.254793
	14.340000	0.119955
	14.345000	0.185730
	14.350000	0.323856
	14.355000	0.254793
	14.360000	0.116666
	14.365000	0.192307
	14.370000	0.323856
	14.375000	0.254793
	14.380000	0.116666
	14.385000	0.182441
	14.390000	0.320567
	14.395000	0.248215
	14.400000	0.116666
	14.405000	0.182441
	14.410000	0.317278
	14.415000	0.251504
	14.420000	0.116666
	14.425000	0.185730
	14.430000	0.323856
	14.435000	0.251504
	14.440000	0.119955
	14.445000	0.189018
	14.450000	0.327145
	14.455000	0.251504
	14.460000	0.119955
	14.465000	0.195596
	14.470000	0.323856
	14.475000	0.254793
	14.480000	0.129821
	14.485000	0.195596
	14.490000	0.330433
	14.495000	0.261370
	14.500000	0.126533
	14.505000	0.195596
	14.510000	0.330433
	14.515000	0.254793
	14.520000	0.123244
	14.525000	0.195596
	14.530000	0.330433
	14.535000	0.258081
	14.540000	0.123244
	14.545000	0.195596
	14.550000	0.330433
	14.555000	0.258081
	14.560000	0.126533
	14.565000	0.198884
	14.570000	0.333722
	14.575000	0.254793
	14.580000	0.126533
	14.585000	0.198884
	14.590000	0.333722
	14.595000	0.258081
	14.600000	0.123244
	14.605000	0.202173
	14.610000	0.327145
	14.615000	0.258081
	14.620000	0.123244
	14.625000	0.198884
	14.630000	0.333722
	14.635000	0.261370
	14.640000	0.123244
	14.645000	0.202173
	14.650000	0.333722
	14.655000	0.258081
	14.660000	0.133110
	14.665000	0.208751
	14.670000	0.337011
	14.675000	0.261370
	14.680000	0.129821
	14.685000	0.208751
	14.690000	0.340299
	14.695000	0.261370
	14.700000	0.129821
	14.705000	0.212039
	14.710000	0.340299
	14.715000	0.261370
	14.720000	0.133110
	14.725000	0.215328
	14.730000	0.340299
	14.735000	0.261370
	14.740000	0.129821
	14.745000	0.218617
	14.750000	0.346877
	14.755000	0.261370
	14.760000	0.139687
	14.765000	0.218617
	14.770000	0.353454
	14.775000	0.277814
	14.780000	0.152842
	14.785000	0.231772
	14.790000	0.360032
	14.795000	0.284391
	14.800000	0.156131
	14.805000	0.244927
	14.810000	0.373187
	14.815000	0.290969
	14.820000	0.159420
	14.825000	0.244927
	14.830000	0.369898
	14.835000	0.290969
	14.840000	0.159420
	14.845000	0.248215
	14.850000	0.369898
	14.855000	0.277814
	14.860000	0.149554
	14.865000	0.235060
	14.870000	0.366609
	14.875000	0.277814
	14.880000	0.146265
	14.885000	0.231772
	14.890000	0.360032
	14.895000	0.267948
	14.900000	0.139687
	14.905000	0.228483
	14.910000	0.356743
	14.915000	0.274525
	14.920000	0.142976
	14.925000	0.228483
	14.930000	0.353454
	14.935000	0.267948
	14.940000	0.142976
	14.945000	0.231772
	14.950000	0.350166
	14.955000	0.264659
	14.960000	0.136399
	14.965000	0.225194
	14.970000	0.353454
	14.975000	0.261370
	14.980000	0.133110
	14.985000	0.221905
	14.990000	0.346877
	14.995000	0.261370
	15.000000	0.133110
	15.005000	0.225194
	15.010000	0.346877
	15.015000	0.258081
	15.020000	0.133110
	15.025000	0.221905
	15.030000	0.346877
	15.035000	0.251504
	15.040000	0.129821
	15.045000	0.221905
	15.050000	0.340299
	15.055000	0.254793
	15.060000	0.126533
	15.065000	0.218617
	15.070000	0.346877
	15.075000	0.251504
	15.080000	0.129821
	15.085000	0.221905
	15.090000	0.340299
	15.095000	0.254793
	15.100000	0.126533
	15.105000	0.218617
	15.110000	0.340299
	15.115000	0.248215
	15.120000	0.126533
	15.125000	0.218617
	15.130000	0.337011
	15.135000	0.248215
	15.140000	0.123244
	15.145000	0.215328
	15.150000	0.340299
	15.155000	0.248215
	15.160000	0.123244
	15.165000	0.212039
	15.170000	0.333722
	15.175000	0.238349
	15.180000	0.116666
	15.185000	0.202173
	15.190000	0.323856
	15.195000	0.225194
	15.200000	0.100223
	15.205000	0.192307
	15.210000	0.310701
	15.215000	0.218617
	15.220000	0.096934
	15.225000	0.182441
	15.230000	0.300835
	15.235000	0.205462
	15.240000	0.090357
	15.245000	0.175863
	15.250000	0.294257
	15.255000	0.202173
	15.260000	0.083779
	15.265000	0.169286
	15.270000	0.274525
	15.275000	0.175863
	15.280000	0.057469
	15.285000	0.142976
	15.290000	0.251504
	15.295000	0.162708
	15.300000	0.041026
	15.305000	0.126533
	15.310000	0.235060
	15.315000	0.146265
	15.320000	0.027871
	15.325000	0.096934
	15.330000	0.195596
	15.335000	0.096934
	15.340000	-0.031326
	15.345000	0.044314
	15.350000	0.133110
	15.355000	0.041026
	15.360000	-0.074080
	15.365000	-0.001728
	15.370000	0.090357
	15.375000	-0.014883
	15.380000	-0.139854
	15.385000	-0.070791
	15.390000	0.021293
	15.395000	-0.080657
	15.400000	-0.185896
	15.405000	-0.103678
	15.410000	0.001561
	15.415000	-0.087234
	15.420000	-0.205628
	15.425000	-0.120122
	15.430000	-0.014883
	15.435000	-0.097101
	15.440000	-0.208917
	15.445000	-0.120122
	15.450000	-0.008305
	15.455000	-0.093812
	15.460000	-0.199051
	15.465000	-0.113544
	15.470000	-0.001728
	15.475000	-0.083946
	15.480000	-0.185896
	15.485000	-0.103678
	15.490000	-0.005016
	15.495000	-0.103678
	15.500000	-0.222072
	15.505000	-0.146431
	15.510000	-0.044481
	15.515000	-0.123410
	15.520000	-0.215495
	15.525000	-0.126699
	15.530000	-0.011594
	15.535000	-0.080657
	15.540000	-0.166164
	15.545000	-0.077368
	15.550000	0.037737
	15.555000	-0.028037
	15.560000	-0.113544
	15.565000	-0.021460
	15.570000	0.087068
	15.575000	0.021293
	15.580000	-0.060925
	15.585000	0.034448
	15.590000	0.149554
	15.595000	0.093645
	15.600000	0.027871
	15.605000	0.133110
	15.610000	0.258081
	15.615000	0.215328
	15.620000	0.152842
	15.625000	0.271236
	15.630000	0.399496
	15.635000	0.340299
	15.640000	0.267948
	15.645000	0.363321
	15.650000	0.471848
	15.655000	0.396208
	15.660000	0.300835
	15.665000	0.386342
	15.670000	0.494869
	15.675000	0.406074
	15.680000	0.310701
	15.685000	0.392919
	15.690000	0.491581
	15.695000	0.402785
	15.700000	0.307412
	15.705000	0.379764
	15.710000	0.465271
	15.715000	0.363321
	15.720000	0.261370
	15.725000	0.350166
	15.730000	0.432384
	15.735000	0.327145
	15.740000	0.225194
	15.745000	0.307412
	15.750000	0.389630
	15.755000	0.281102
	15.760000	0.169286
	15.765000	0.251504
	15.770000	0.340299
	15.775000	0.241638
	15.780000	0.133110
	15.785000	0.228483
	15.790000	0.327145
	15.795000	0.231772
	15.800000	0.126533
	15.805000	0.231772
	15.810000	0.327145
	15.815000	0.228483
	15.820000	0.126533
	15.825000	0.228483
	15.830000	0.327145
	15.835000	0.235060
	15.840000	0.129821
	15.845000	0.231772
	15.850000	0.323856
	15.855000	0.228483
	15.860000	0.133110
	15.865000	0.228483
	15.870000	0.327145
	15.875000	0.231772
	15.880000	0.139687
	15.885000	0.248215
	15.890000	0.356743
	15.895000	0.261370
	15.900000	0.179152
	15.905000	0.287680
	15.910000	0.389630
	15.915000	0.294257
	15.920000	0.205462
	15.925000	0.310701
	15.930000	0.415940
	15.935000	0.320567
	15.940000	0.221905
	15.945000	0.320567
	15.950000	0.415940
	15.955000	0.313990
	15.960000	0.212039
	15.965000	0.317278
	15.970000	0.412651
	15.975000	0.307412
	15.980000	0.208751
	15.985000	0.313990
	15.990000	0.412651
	15.995000	0.300835
	16.000000	0.198884
	16.005000	0.307412
	16.010000	0.402785
	16.015000	0.290969
	16.020000	0.195596
	16.025000	0.304124
	16.030000	0.392919
	16.035000	0.284391
	16.040000	0.185730
	16.045000	0.294257
	16.050000	0.389630
	16.055000	0.274525
	16.060000	0.179152
	16.065000	0.284391
	16.070000	0.383053
	16.075000	0.267948
	16.080000	0.169286
	16.085000	0.281102
	16.090000	0.379764
	16.095000	0.264659
	16.100000	0.162708
	16.105000	0.281102
	16.110000	0.379764
	16.115000	0.258081
	16.120000	0.165997
	16.125000	0.284391
	16.130000	0.376475
	16.135000	0.261370
	16.140000	0.159420
	16.145000	0.277814
	16.150000	0.376475
	16.155000	0.258081
	16.160000	0.162708
	16.165000	0.277814
	16.170000	0.369898
	16.175000	0.248215
	16.180000	0.156131
	16.185000	0.267948
	16.190000	0.366609
	16.195000	0.248215
	16.200000	0.152842
	16.205000	0.264659
	16.210000	0.360032
	16.215000	0.244927
	16.220000	0.146265
	16.225000	0.258081
	16.230000	0.356743
	16.235000	0.238349
	16.240000	0.139687
	16.245000	0.254793
	16.250000	0.346877
	16.255000	0.228483
	16.260000	0.139687
	16.265000	0.254793
	16.270000	0.343588
	16.275000	0.231772
	16.280000	0.129821
	16.285000	0.248215
	16.290000	0.350166
	16.295000	0.225194
	16.300000	0.129821
	16.305000	0.251504
	16.310000	0.343588
	16.315000	0.218617
	16.320000	0.123244
	16.325000	0.244927
	16.330000	0.333722
	16.335000	0.212039
	16.340000	0.126533
	16.345000	0.241638
	16.350000	0.333722
	16.355000	0.215328
	16.360000	0.119955
	16.365000	0.248215
	16.370000	0.330433
	16.375000	0.212039
	16.380000	0.116666
	16.385000	0.241638
	16.390000	0.330433
	16.395000	0.205462
	16.400000	0.116666
	16.405000	0.241638
	16.410000	0.327145
	16.415000	0.208751
	16.420000	0.113378
	16.425000	0.238349
	16.430000	0.323856
	16.435000	0.205462
	16.440000	0.116666
	16.445000	0.235060
	16.450000	0.327145
	16.455000	0.202173
	16.460000	0.113378
	16.465000	0.235060
	16.470000	0.323856
	16.475000	0.205462
	16.480000	0.106800
	16.485000	0.235060
	16.490000	0.320567
	16.495000	0.195596
	16.500000	0.103511
	16.505000	0.235060
	16.510000	0.320567
	16.515000	0.195596
	16.520000	0.106800
	16.525000	0.231772
	16.530000	0.317278
	16.535000	0.198884
	16.540000	0.103511
	16.545000	0.228483
	16.550000	0.317278
	16.555000	0.189018
	16.560000	0.106800
	16.565000	0.231772
	16.570000	0.313990
	16.575000	0.189018
	16.580000	0.103511
	16.585000	0.228483
	16.590000	0.313990
	16.595000	0.189018
	16.600000	0.096934
	16.605000	0.225194
	16.610000	0.313990
	16.615000	0.192307
	16.620000	0.103511
	16.625000	0.228483
	16.630000	0.313990
	16.635000	0.185730
	16.640000	0.103511
	16.645000	0.235060
	16.650000	0.317278
	16.655000	0.182441
	16.660000	0.103511
	16.665000	0.225194
	16.670000	0.307412
	16.675000	0.179152
	16.680000	0.100223
	16.685000	0.215328
	16.690000	0.304124
	16.695000	0.185730
	16.700000	0.100223
	16.705000	0.225194
	16.710000	0.304124
	16.715000	0.182441
	16.720000	0.100223
	16.725000	0.228483
	16.730000	0.307412
	16.735000	0.185730
	16.740000	0.103511
	16.745000	0.228483
	16.750000	0.307412
	16.755000	0.185730
	16.760000	0.106800
	16.765000	0.235060
	16.770000	0.313990
	16.775000	0.189018
	16.780000	0.110089
	16.785000	0.235060
	16.790000	0.313990
	16.795000	0.185730
	16.800000	0.106800
	16.805000	0.235060
	16.810000	0.313990
	16.815000	0.189018
	16.820000	0.106800
	16.825000	0.238349
	16.830000	0.307412
	16.835000	0.185730
	16.840000	0.106800
	16.845000	0.235060
	16.850000	0.317278
	16.855000	0.185730
	16.860000	0.110089
	16.865000	0.238349
	16.870000	0.313990
	16.875000	0.182441
	16.880000	0.106800
	16.885000	0.235060
	16.890000	0.313990
	16.895000	0.182441
	16.900000	0.110089
	16.905000	0.235060
	16.910000	0.310701
	16.915000	0.182441
	16.920000	0.103511
	16.925000	0.241638
	16.930000	0.310701
	16.935000	0.179152
	16.940000	0.103511
	16.945000	0.238349
	16.950000	0.307412
	16.955000	0.179152
	16.960000	0.106800
	16.965000	0.231772
	16.970000	0.310701
	16.975000	0.179152
	16.980000	0.103511
	16.985000	0.228483
	16.990000	0.310701
	16.995000	0.175863
	17.000000	0.106800
	17.005000	0.235060
	17.010000	0.310701
	17.015000	0.179152
	17.020000	0.103511
	17.025000	0.238349
	17.030000	0.307412
	17.035000	0.179152
	17.040000	0.106800
	17.045000	0.235060
	17.050000	0.307412
	17.055000	0.175863
	17.060000	0.100223
	17.065000	0.241638
	17.070000	0.310701
	17.075000	0.175863
	17.080000	0.103511
	17.085000	0.238349
	17.090000	0.307412
	17.095000	0.175863
	17.100000	0.103511
	17.105000	0.238349
	17.110000	0.307412
	17.115000	0.175863
	17.120000	0.103511
	17.125000	0.235060
	17.130000	0.307412
	17.135000	0.172575
	17.140000	0.110089
	17.145000	0.241638
	17.150000	0.313990
	17.155000	0.175863
	17.160000	0.106800
	17.165000	0.241638
	17.170000	0.313990
	17.175000	0.172575
	17.180000	0.110089
	17.185000	0.248215
	17.190000	0.317278
	17.195000	0.182441
	17.200000	0.116666
	17.205000	0.248215
	17.210000	0.317278
	17.215000	0.185730
	17.220000	0.113378
	17.225000	0.251504
	17.230000	0.323856
	17.235000	0.185730
	17.240000	0.116666
	17.245000	0.254793
	17.250000	0.323856
	17.255000	0.185730
	17.260000	0.123244
	17.265000	0.254793
	17.270000	0.327145
	17.275000	0.189018
	17.280000	0.126533
	17.285000	0.264659
	17.290000	0.330433
	17.295000	0.195596
	17.300000	0.126533
	17.305000	0.264659
	17.310000	0.337011
	17.315000	0.198884
	17.320000	0.139687
	17.325000	0.277814
	17.330000	0.346877
	17.335000	0.205462
	17.340000	0.149554
	17.345000	0.284391
	17.350000	0.353454
	17.355000	0.218617
	17.360000	0.152842
	17.365000	0.290969
	17.370000	0.353454
	17.375000	0.215328
	17.380000	0.152842
	17.385000	0.287680
	17.390000	0.343588
	17.395000	0.208751
	17.400000	0.136399
	17.405000	0.267948
	17.410000	0.320567
	17.415000	0.189018
	17.420000	0.133110
	17.425000	0.274525
	17.430000	0.340299
	17.435000	0.231772
	17.440000	0.175863
	17.445000	0.317278
	17.450000	0.386342
	17.455000	0.258081
	17.460000	0.205462
	17.465000	0.343588
	17.470000	0.402785
	17.475000	0.277814
	17.480000	0.218617
	17.485000	0.346877
	17.490000	0.409363
	17.495000	0.281102
	17.500000	0.218617
	17.505000	0.346877
	17.510000	0.402785
	17.515000	0.264659
	17.520000	0.202173
	17.525000	0.317278
	17.530000	0.369898
	17.535000	0.235060
	17.540000	0.165997
	17.545000	0.281102
	17.550000	0.327145
	17.555000	0.195596
	17.560000	0.136399
	17.565000	0.251504
	17.570000	0.300835
	17.575000	0.175863
	17.580000	0.119955
	17.585000	0.235060
	17.590000	0.287680
	17.595000	0.156131
	17.600000	0.093645
	17.605000	0.205462
	17.610000	0.241638
	17.615000	0.103511
	17.620000	0.027871
	17.625000	0.119955
	17.630000	0.159420
	17.635000	0.008138
	17.640000	-0.070791
	17.645000	0.014716
	17.650000	0.031160
	17.655000	-0.126699
	17.660000	-0.205628
	17.665000	-0.116833
	17.670000	-0.080657
	17.675000	-0.205628
	17.680000	-0.268114
	17.685000	-0.159586
	17.690000	-0.113544
	17.695000	-0.245093
	17.700000	-0.304290
	17.705000	-0.205628
	17.710000	-0.162875
	17.715000	-0.284558
	17.720000	-0.337177
	17.725000	-0.225361
	17.730000	-0.169453
	17.735000	-0.268114
	17.740000	-0.307579
	17.745000	-0.185896
	17.750000	-0.123410
	17.755000	-0.225361
	17.760000	-0.264826
	17.765000	-0.133277
	17.770000	-0.074080
	17.775000	-0.169453
	17.780000	-0.212206
	17.785000	-0.087234
	17.790000	-0.024749
	17.795000	-0.120122
	17.800000	-0.156298
	17.805000	-0.031326
	17.810000	0.034448
	17.815000	-0.057636
	17.820000	-0.090523
	17.825000	0.034448
	17.830000	0.103511
	17.835000	0.008138
	17.840000	-0.021460
	17.845000	0.110089
	17.850000	0.175863
	17.855000	0.090357
	17.860000	0.060758
	17.865000	0.192307
	17.870000	0.254793
	17.875000	0.165997
	17.880000	0.142976
	17.885000	0.271236
	17.890000	0.330433
	17.895000	0.228483
	17.900000	0.192307
	17.905000	0.310701
	17.910000	0.360032
	17.915000	0.238349
	17.920000	0.192307
	17.925000	0.307412
	17.930000	0.346877
	17.935000	0.231772
	17.940000	0.182441
	17.945000	0.297546
	17.950000	0.333722
	17.955000	0.208751
	17.960000	0.159420
	17.965000	0.277814
	17.970000	0.323856
	17.975000	0.202173
	17.980000	0.169286
	17.985000	0.297546
	17.990000	0.360032
	17.995000	0.254793
	18.000000	0.231772
	18.005000	0.356743
	18.010000	0.406074
	18.015000	0.290969
	18.020000	0.241638
	18.025000	0.360032
	18.030000	0.399496
	18.035000	0.261370
	18.040000	0.212039
	18.045000	0.323856
	18.050000	0.350166
	18.055000	0.212039
	18.060000	0.169286
	18.065000	0.287680
	18.070000	0.323856
	18.075000	0.198884
	18.080000	0.149554
	18.085000	0.274525
	18.090000	0.320567
	18.095000	0.185730
	18.100000	0.146265
	18.105000	0.277814
	18.110000	0.313990
	18.115000	0.185730
	18.120000	0.146265
	18.125000	0.271236
	18.130000	0.307412
	18.135000	0.175863
	18.140000	0.136399
	18.145000	0.274525
	18.150000	0.317278
	18.155000	0.192307
	18.160000	0.165997
	18.165000	0.304124
	18.170000	0.346877
	18.175000	0.221905
	18.180000	0.189018
	18.185000	0.330433
	18.190000	0.373187
	18.195000	0.241638
	18.200000	0.215328
	18.205000	0.353454
	18.210000	0.402785
	18.215000	0.277814
	18.220000	0.241638
	18.225000	0.389630
	18.230000	0.429095
	18.235000	0.300835
	18.240000	0.261370
	18.245000	0.392919
	18.250000	0.425806
	18.255000	0.277814
	18.260000	0.235060
	18.265000	0.369898
	18.270000	0.402785
	18.275000	0.254793
	18.280000	0.215328
	18.285000	0.350166
	18.290000	0.379764
	18.295000	0.231772
	18.300000	0.192307
	18.305000	0.327145
	18.310000	0.360032
	18.315000	0.212039
	18.320000	0.172575
	18.325000	0.310701
	18.330000	0.343588
	18.335000	0.202173
	18.340000	0.162708
	18.345000	0.304124
	18.350000	0.333722
	18.355000	0.192307
	18.360000	0.156131
	18.365000	0.300835
	18.370000	0.330433
	18.375000	0.189018
	18.380000	0.156131
	18.385000	0.294257
	18.390000	0.333722
	18.395000	0.189018
	18.400000	0.156131
	18.405000	0.294257
	18.410000	0.330433
	18.415000	0.179152
	18.420000	0.149554
	18.425000	0.294257
	18.430000	0.323856
	18.435000	0.179152
	18.440000	0.142976
	18.445000	0.294257
	18.450000	0.323856
	18.455000	0.175863
	18.460000	0.142976
	18.465000	0.287680
	18.470000	0.317278
	18.475000	0.169286
	18.480000	0.136399
	18.485000	0.281102
	18.490000	0.313990
	18.495000	0.159420
	18.500000	0.129821
	18.505000	0.274525
	18.510000	0.307412
	18.515000	0.159420
	18.520000	0.126533
	18.525000	0.274525
	18.530000	0.304124
	18.535000	0.159420
	18.540000	0.123244
	18.545000	0.277814
	18.550000	0.297546
	18.555000	0.156131
	18.560000	0.123244
	18.565000	0.267948
	18.570000	0.300835
	18.575000	0.146265
	18.580000	0.119955
	18.585000	0.267948
	18.590000	0.297546
	18.595000	0.146265
	18.600000	0.113378
	18.605000	0.264659
	18.610000	0.290969
	18.615000	0.142976
	18.620000	0.119955
	18.625000	0.264659
	18.630000	0.287680
	18.635000	0.142976
	18.640000	0.119955
	18.645000	0.264659
	18.650000	0.287680
	18.655000	0.139687
	18.660000	0.116666
	18.665000	0.261370
	18.670000	0.287680
	18.675000	0.139687
	18.680000	0.113378
	18.685000	0.261370
	18.690000	0.281102
	18.695000	0.133110
	18.700000	0.110089
	18.705000	0.258081
	18.710000	0.284391
	18.715000	0.126533
	18.720000	0.110089
	18.725000	0.261370
	18.730000	0.277814
	18.735000	0.123244
	18.740000	0.103511
	18.745000	0.251504
	18.750000	0.274525
	18.755000	0.116666
	18.760000	0.096934
	18.765000	0.251504
	18.770000	0.274525
	18.775000	0.123244
	18.780000	0.106800
	18.785000	0.248215
	18.790000	0.271236
	18.795000	0.123244
	18.800000	0.103511
	18.805000	0.251504
	18.810000	0.274525
	18.815000	0.116666
	18.820000	0.100223
	18.825000	0.244927
	18.830000	0.264659
	18.835000	0.113378
	18.840000	0.093645
	18.845000	0.244927
	18.850000	0.261370
	18.855000	0.113378
	18.860000	0.093645
	18.865000	0.248215
	18.870000	0.267948
	18.875000	0.116666
	18.880000	0.100223
	18.885000	0.254793
	18.890000	0.271236
	18.895000	0.116666
	18.900000	0.096934
	18.905000	0.248215
	18.910000	0.264659
	18.915000	0.123244
	18.920000	0.100223
	18.925000	0.248215
	18.930000	0.267948
	18.935000	0.119955
	18.940000	0.100223
	18.945000	0.251504
	18.950000	0.267948
	18.955000	0.116666
	18.960000	0.100223
	18.965000	0.254793
	18.970000	0.264659
	18.975000	0.110089
	18.980000	0.096934
	18.985000	0.251504
	18.990000	0.267948
	18.995000	0.113378
	19.000000	0.100223
	19.005000	0.251504
	19.010000	0.264659
	19.015000	0.110089
	19.020000	0.100223
	19.025000	0.254793
	19.030000	0.261370
	19.035000	0.113378
	19.040000	0.103511
	19.045000	0.254793
	19.050000	0.261370
	19.055000	0.113378
	19.060000	0.110089
	19.065000	0.251504
	19.070000	0.264659
	19.075000	0.116666
	19.080000	0.100223
	19.085000	0.254793
	19.090000	0.261370
	19.095000	0.113378
	19.100000	0.106800
	19.105000	0.254793
	19.110000	0.261370
	19.115000	0.116666
	19.120000	0.100223
	19.125000	0.251504
	19.130000	0.264659
	19.135000	0.110089
	19.140000	0.100223
	19.145000	0.251504
	19.150000	0.261370
	19.155000	0.110089
	19.160000	0.103511
	19.165000	0.254793
	19.170000	0.264659
	19.175000	0.116666
	19.180000	0.110089
	19.185000	0.258081
	19.190000	0.264659
	19.195000	0.116666
	19.200000	0.110089
	19.205000	0.258081
	19.210000	0.267948
	19.215000	0.119955
	19.220000	0.113378
	19.225000	0.261370
	19.230000	0.267948
	19.235000	0.126533
	19.240000	0.113378
	19.245000	0.261370
	19.250000	0.274525
	19.255000	0.119955
	19.260000	0.113378
	19.265000	0.261370
	19.270000	0.271236
	19.275000	0.123244
	19.280000	0.116666
	19.285000	0.271236
	19.290000	0.277814
	19.295000	0.116666
	19.300000	0.119955
	19.305000	0.274525
	19.310000	0.274525
	19.315000	0.123244
	19.320000	0.119955
	19.325000	0.274525
	19.330000	0.277814
	19.335000	0.126533
	19.340000	0.123244
	19.345000	0.274525
	19.350000	0.274525
	19.355000	0.123244
	19.360000	0.123244
	19.365000	0.274525
	19.370000	0.274525
	19.375000	0.126533
	19.380000	0.119955
	19.385000	0.274525
	19.390000	0.271236
	19.395000	0.119955
	19.400000	0.119955
	19.405000	0.277814
	19.410000	0.274525
	19.415000	0.129821
	19.420000	0.123244
	19.425000	0.277814
	19.430000	0.281102
	19.435000	0.126533
	19.440000	0.133110
	19.445000	0.281102
	19.450000	0.281102
	19.455000	0.133110
	19.460000	0.129821
	19.465000	0.281102
	19.470000	0.277814
	19.475000	0.129821
	19.480000	0.133110
	19.485000	0.281102
	19.490000	0.277814
	19.495000	0.126533
	19.500000	0.129821
	19.505000	0.277814
	19.510000	0.274525
	19.515000	0.126533
	19.520000	0.129821
	19.525000	0.277814
	19.530000	0.277814
	19.535000	0.129821
	19.540000	0.129821
	19.545000	0.277814
	19.550000	0.274525
	19.555000	0.119955
	19.560000	0.126533
	19.565000	0.274525
	19.570000	0.274525
	19.575000	0.119955
	19.580000	0.123244
	19.585000	0.274525
	19.590000	0.271236
	19.595000	0.116666
	19.600000	0.126533
	19.605000	0.277814
	19.610000	0.274525
	19.615000	0.126533
	19.620000	0.129821
	19.625000	0.281102
	19.630000	0.274525
	19.635000	0.119955
	19.640000	0.133110
	19.645000	0.284391
	19.650000	0.274525
	19.655000	0.133110
	19.660000	0.129821
	19.665000	0.287680
	19.670000	0.271236
	19.675000	0.119955
	19.680000	0.126533
	19.685000	0.277814
	19.690000	0.267948
	19.695000	0.116666
	19.700000	0.123244
	19.705000	0.277814
	19.710000	0.267948
	19.715000	0.113378
	19.720000	0.126533
	19.725000	0.277814
	19.730000	0.261370
	19.735000	0.116666
	19.740000	0.129821
	19.745000	0.274525
	19.750000	0.274525
	19.755000	0.119955
	19.760000	0.126533
	19.765000	0.284391
	19.770000	0.271236
	19.775000	0.123244
	19.780000	0.136399
	19.785000	0.287680
	19.790000	0.274525
	19.795000	0.133110
	19.800000	0.149554
	19.805000	0.304124
	19.810000	0.297546
	19.815000	0.146265
	19.820000	0.172575
	19.825000	0.323856
	19.830000	0.313990
	19.835000	0.169286
	19.840000	0.182441
	19.845000	0.333722
	19.850000	0.327145
	19.855000	0.175863
	19.860000	0.189018
	19.865000	0.340299
	19.870000	0.327145
	19.875000	0.172575
	19.880000	0.185730
	19.885000	0.333722
	19.890000	0.320567
	19.895000	0.169286
	19.900000	0.179152
	19.905000	0.323856
	19.910000	0.307412
	19.915000	0.156131
	19.920000	0.175863
	19.925000	0.320567
	19.930000	0.304124
	19.935000	0.152842
	19.940000	0.172575
	19.945000	0.313990
	19.950000	0.297546
	19.955000	0.149554
	19.960000	0.165997
	19.965000	0.317278
	19.970000	0.300835
	19.975000	0.152842
	19.980000	0.172575
	19.985000	0.313990
	19.990000	0.297546
	19.995000	0.146265
	20.000000	0.165997
	20.005000	0.313990
	20.010000	0.294257
	20.015000	0.142976
	20.020000	0.156131
	20.025000	0.304124
	20.030000	0.287680
	20.035000	0.142976
	20.040000	0.159420
	20.045000	0.304124
	20.050000	0.281102
	20.055000	0.136399
	20.060000	0.156131
	20.065000	0.297546
	20.070000	0.274525
	20.075000	0.129821
	20.080000	0.149554
	20.085000	0.290969
	20.090000	0.267948
	20.095000	0.126533
	20.100000	0.146265
	20.105000	0.284391
	20.110000	0.264659
	20.115000	0.119955
	20.120000	0.133110
	20.125000	0.274525
	20.130000	0.254793
	20.135000	0.110089
	20.140000	0.133110
	20.145000	0.267948
	20.150000	0.248215
	20.155000	0.103511
	20.160000	0.116666
	20.165000	0.254793
	20.170000	0.238349
	20.175000	0.083779
	20.180000	0.110089
	20.185000	0.244927
	20.190000	0.228483
	20.195000	0.083779
	20.200000	0.100223
	20.205000	0.241638
	20.210000	0.218617
	20.215000	0.090357
	20.220000	0.103511
	20.225000	0.248215
	20.230000	0.225194
	20.235000	0.090357
	20.240000	0.106800
	20.245000	0.248215
	20.250000	0.225194
	20.255000	0.100223
	20.260000	0.123244
	20.265000	0.254793
	20.270000	0.231772
	20.275000	0.100223
	20.280000	0.123244
	20.285000	0.261370
	20.290000	0.248215
	20.295000	0.123244
	20.300000	0.149554
	20.305000	0.290969
	20.310000	0.274525
	20.315000	0.142976
	20.320000	0.159420
	20.325000	0.290969
	20.330000	0.258081
	20.335000	0.116666
	20.340000	0.129821
	20.345000	0.248215
	20.350000	0.212039
	20.355000	0.064047
	20.360000	0.070624
	20.365000	0.185730
	20.370000	0.159420
	20.375000	0.024582
	20.380000	0.041026
	20.385000	0.165997
	20.390000	0.129821
	20.395000	-0.001728
	20.400000	0.014716
	20.405000	0.126533
	20.410000	0.110089
	20.415000	-0.014883
	20.420000	0.011427
	20.425000	0.142976
	20.430000	0.123244
	20.435000	0.011427
	20.440000	0.031160
	20.445000	0.156131
	20.450000	0.149554
	20.455000	0.031160
	20.460000	0.057469
	20.465000	0.185730
	20.470000	0.175863
	20.475000	0.067335
	20.480000	0.093645
	20.485000	0.218617
	20.490000	0.208751
	20.495000	0.090357
	20.500000	0.116666
	20.505000	0.248215
	20.510000	0.231772
	20.515000	0.113378
	20.520000	0.142976
	20.525000	0.267948
	20.530000	0.251504
	20.535000	0.136399
	20.540000	0.159420
	20.545000	0.287680
	20.550000	0.261370
	20.555000	0.149554
	20.560000	0.172575
	20.565000	0.290969
	20.570000	0.267948
	20.575000	0.156131
	20.580000	0.185730
	20.585000	0.300835
	20.590000	0.274525
	20.595000	0.142976
	20.600000	0.169286
	20.605000	0.287680
	20.610000	0.254793
	20.615000	0.133110
	20.620000	0.152842
	20.625000	0.267948
	20.630000	0.241638
	20.635000	0.113378
	20.640000	0.142976
	20.645000	0.277814
	20.650000	0.258081
	20.655000	0.142976
	20.660000	0.185730
	20.665000	0.304124
	20.670000	0.261370
	20.675000	0.139687
	20.680000	0.175863
	20.685000	0.290969
	20.690000	0.238349
	20.695000	0.096934
	20.700000	0.126533
	20.705000	0.241638
	20.710000	0.202173
	20.715000	0.067335
	20.720000	0.106800
	20.725000	0.238349
	20.730000	0.205462
	20.735000	0.080490
	20.740000	0.119955
	20.745000	0.258081
	20.750000	0.215328
	20.755000	0.090357
	20.760000	0.129821
	20.765000	0.258081
	20.770000	0.221905
	20.775000	0.090357
	20.780000	0.129821
	20.785000	0.264659
	20.790000	0.225194
	20.795000	0.093645
	20.800000	0.139687
	20.805000	0.267948
	20.810000	0.225194
	20.815000	0.096934
	20.820000	0.133110
	20.825000	0.274525
	20.830000	0.235060
	20.835000	0.106800
	20.840000	0.159420
	20.845000	0.304124
	20.850000	0.267948
	20.855000	0.139687
	20.860000	0.189018
	20.865000	0.337011
	20.870000	0.297546
	20.875000	0.175863
	20.880000	0.221905
	20.885000	0.369898
	20.890000	0.337011
	20.895000	0.208751
	20.900000	0.258081
	20.905000	0.402785
	20.910000	0.363321
	20.915000	0.225194
	20.920000	0.281102
	20.925000	0.419229
	20.930000	0.376475
	20.935000	0.238349
	20.940000	0.281102
	20.945000	0.419229
	20.950000	0.369898
	20.955000	0.228483
	20.960000	0.274525
	20.965000	0.409363
	20.970000	0.353454
	20.975000	0.208751
	20.980000	0.261370
	20.985000	0.392919
	20.990000	0.340299
	20.995000	0.192307
	21.000000	0.241638
	21.005000	0.383053
	21.010000	0.323856
	21.015000	0.185730
	21.020000	0.231772
	21.025000	0.366609
	21.030000	0.310701
	21.035000	0.169286
	21.040000	0.221905
	21.045000	0.356743
	21.050000	0.304124
	21.055000	0.162708
	21.060000	0.212039
	21.065000	0.353454
	21.070000	0.294257
	21.075000	0.152842
	21.080000	0.202173
	21.085000	0.343588
	21.090000	0.287680
	21.095000	0.146265
	21.100000	0.198884
	21.105000	0.337011
	21.110000	0.277814
	21.115000	0.139687
	21.120000	0.195596
	21.125000	0.333722
	21.130000	0.277814
	21.135000	0.133110
	21.140000	0.189018
	21.145000	0.327145
	21.150000	0.267948
	21.155000	0.126533
	21.160000	0.182441
	21.165000	0.327145
	21.170000	0.264659
	21.175000	0.123244
	21.180000	0.182441
	21.185000	0.320567
	21.190000	0.258081
	21.195000	0.116666
	21.200000	0.179152
	21.205000	0.313990
	21.210000	0.258081
	21.215000	0.113378
	21.220000	0.172575
	21.225000	0.313990
	21.230000	0.251504
	21.235000	0.119955
	21.240000	0.172575
	21.245000	0.310701
	21.250000	0.248215
	21.255000	0.110089
	21.260000	0.169286
	21.265000	0.307412
	21.270000	0.248215
	21.275000	0.106800
	21.280000	0.165997
	21.285000	0.313990
	21.290000	0.244927
	21.295000	0.103511
	21.300000	0.165997
	21.305000	0.307412
	21.310000	0.241638
	21.315000	0.103511
	21.320000	0.169286
	21.325000	0.300835
	21.330000	0.244927
	21.335000	0.103511
	21.340000	0.165997
	21.345000	0.300835
	21.350000	0.241638
	21.355000	0.096934
	21.360000	0.165997
	21.365000	0.297546
	21.370000	0.235060
	21.375000	0.100223
	21.380000	0.159420
	21.385000	0.300835
	21.390000	0.231772
	21.395000	0.100223
	21.400000	0.162708
	21.405000	0.300835
	21.410000	0.235060
	21.415000	0.093645
	21.420000	0.159420
	21.425000	0.300835
	21.430000	0.231772
	21.435000	0.093645
	21.440000	0.162708
	21.445000	0.294257
	21.450000	0.228483
	21.455000	0.090357
	21.460000	0.156131
	21.465000	0.300835
	21.470000	0.228483
	21.475000	0.090357
	21.480000	0.159420
	21.485000	0.297546
	21.490000	0.225194
	21.495000	0.087068
	21.500000	0.159420
	21.505000	0.290969
	21.510000	0.225194
	21.515000	0.090357
	21.520000	0.156131
	21.525000	0.290969
	21.530000	0.228483
	21.535000	0.087068
	21.540000	0.156131
	21.545000	0.290969
	21.550000	0.221905
	21.555000	0.087068
	21.560000	0.152842
	21.565000	0.294257
	21.570000	0.221905
	21.575000	0.087068
	21.580000	0.156131
	21.585000	0.294257
	21.590000	0.221905
	21.595000	0.083779
	21.600000	0.156131
	21.605000	0.290969
	21.610000	0.221905
	21.615000	0.083779
	21.620000	0.152842
	21.625000	0.294257
	21.630000	0.215328
	21.635000	0.080490
	21.640000	0.162708
	21.645000	0.290969
	21.650000	0.218617
	21.655000	0.080490
	21.660000	0.159420
	21.665000	0.287680
	21.670000	0.215328
	21.675000	0.080490
	21.680000	0.156131
	21.685000	0.287680
	21.690000	0.221905
	21.695000	0.077202
	21.700000	0.159420
	21.705000	0.290969
	21.710000	0.218617
	21.715000	0.083779
	21.720000	0.159420
	21.725000	0.287680
	21.730000	0.215328
	21.735000	0.077202
	21.740000	0.152842
	21.745000	0.287680
	21.750000	0.212039
	21.755000	0.080490
	21.760000	0.156131
	21.765000	0.287680
	21.770000	0.212039
	21.775000	0.077202
	21.780000	0.159420
	21.785000	0.287680
	21.790000	0.212039
	21.795000	0.083779
	21.800000	0.156131
	21.805000	0.287680
	21.810000	0.218617
	21.815000	0.083779
	21.820000	0.156131
	21.825000	0.287680
	21.830000	0.208751
	21.835000	0.080490
	21.840000	0.159420
	21.845000	0.290969
	21.850000	0.208751
	21.855000	0.080490
	21.860000	0.162708
	21.865000	0.290969
	21.870000	0.208751
	21.875000	0.083779
	21.880000	0.152842
	21.885000	0.287680
	21.890000	0.215328
	21.895000	0.080490
	21.900000	0.156131
	21.905000	0.290969
	21.910000	0.208751
	21.915000	0.080490
	21.920000	0.159420
	21.925000	0.287680
	21.930000	0.205462
	21.935000	0.077202
	21.940000	0.156131
	21.945000	0.284391
	21.950000	0.208751
	21.955000	0.080490
	21.960000	0.162708
	21.965000	0.287680
	21.970000	0.212039
	21.975000	0.077202
	21.980000	0.156131
	21.985000	0.290969
	21.990000	0.208751
	21.995000	0.080490
	22.000000	0.159420
	22.005000	0.290969
	22.010000	0.202173
	22.015000	0.077202
	22.020000	0.162708
	22.025000	0.290969
	22.030000	0.202173
	22.035000	0.080490
	22.040000	0.162708
	22.045000	0.290969
	22.050000	0.205462
	22.055000	0.080490
	22.060000	0.156131
	22.065000	0.287680
	22.070000	0.202173
	22.075000	0.077202
	22.080000	0.165997
	22.085000	0.287680
	22.090000	0.202173
	22.095000	0.073913
	22.100000	0.159420
	22.105000	0.287680
	22.110000	0.205462
	22.115000	0.080490
	22.120000	0.159420
	22.125000	0.287680
	22.130000	0.208751
	22.135000	0.080490
	22.140000	0.162708
	22.145000	0.287680
	22.150000	0.202173
	22.155000	0.080490
	22.160000	0.162708
	22.165000	0.290969
	22.170000	0.198884
	22.175000	0.080490
	22.180000	0.162708
	22.185000	0.287680
	22.190000	0.205462
	22.195000	0.080490
	22.200000	0.159420
	22.205000	0.290969
	22.210000	0.202173
	22.215000	0.077202
	22.220000	0.169286
	22.225000	0.290969
	22.230000	0.208751
	22.235000	0.073913
	22.240000	0.169286
	22.245000	0.287680
	22.250000	0.202173
	22.255000	0.080490
	22.260000	0.172575
	22.265000	0.297546
	22.270000	0.202173
	22.275000	0.080490
	22.280000	0.169286
	22.285000	0.290969
	22.290000	0.205462
	22.295000	0.077202
	22.300000	0.169286
	22.305000	0.294257
	22.310000	0.202173
	22.315000	0.077202
	22.320000	0.172575
	22.325000	0.290969
	22.330000	0.202173
	22.335000	0.077202
	22.340000	0.172575
	22.345000	0.294257
	22.350000	0.205462
	22.355000	0.083779
	22.360000	0.175863
	22.365000	0.297546
	22.370000	0.205462
	22.375000	0.080490
	22.380000	0.175863
	22.385000	0.300835
	22.390000	0.205462
	22.395000	0.080490
	22.400000	0.175863
	22.405000	0.294257
	22.410000	0.202173
	22.415000	0.077202
	22.420000	0.175863
	22.425000	0.297546
	22.430000	0.205462
	22.435000	0.077202
	22.440000	0.172575
	22.445000	0.294257
	22.450000	0.195596
	22.455000	0.080490
	22.460000	0.172575
	22.465000	0.294257
	22.470000	0.205462
	22.475000	0.077202
	22.480000	0.179152
	22.485000	0.290969
	22.490000	0.198884
	22.495000	0.080490
	22.500000	0.175863
	22.505000	0.297546
	22.510000	0.195596
	22.515000	0.080490
	22.520000	0.175863
	22.525000	0.297546
	22.530000	0.202173
	22.535000	0.080490
	22.540000	0.175863
	22.545000	0.297546
	22.550000	0.205462
	22.555000	0.080490
	22.560000	0.179152
	22.565000	0.297546
	22.570000	0.198884
	22.575000	0.083779
	22.580000	0.179152
	22.585000	0.297546
	22.590000	0.198884
	22.595000	0.080490
	22.600000	0.179152
	22.605000	0.297546
	22.610000	0.198884
	22.615000	0.077202
	22.620000	0.179152
	22.625000	0.300835
	22.630000	0.198884
	22.635000	0.083779
	22.640000	0.182441
	22.645000	0.297546
	22.650000	0.195596
	22.655000	0.083779
	22.660000	0.182441
	22.665000	0.297546
	22.670000	0.198884
	22.675000	0.083779
	22.680000	0.179152
	22.685000	0.300835
	22.690000	0.198884
	22.695000	0.083779
	22.700000	0.182441
	22.705000	0.297546
	22.710000	0.195596
	22.715000	0.083779
	22.720000	0.182441
	22.725000	0.300835
	22.730000	0.195596
	22.735000	0.077202
	22.740000	0.182441
	22.745000	0.297546
	22.750000	0.198884
	22.755000	0.087068
	22.760000	0.185730
	22.765000	0.297546
	22.770000	0.198884
	22.775000	0.087068
	22.780000	0.185730
	22.785000	0.297546
	22.790000	0.195596
	22.795000	0.083779
	22.800000	0.192307
	22.805000	0.304124
	22.810000	0.202173
	22.815000	0.093645
	22.820000	0.195596
	22.825000	0.310701
	22.830000	0.205462
	22.835000	0.096934
	22.840000	0.205462
	22.845000	0.317278
	22.850000	0.212039
	22.855000	0.100223
	22.860000	0.205462
	22.865000	0.313990
	22.870000	0.212039
	22.875000	0.100223
	22.880000	0.215328
	22.885000	0.320567
	22.890000	0.218617
	22.895000	0.103511
	22.900000	0.212039
	22.905000	0.323856
	22.910000	0.218617
	22.915000	0.103511
	22.920000	0.212039
	22.925000	0.323856
	22.930000	0.221905
	22.935000	0.106800
	22.940000	0.218617
	22.945000	0.327145
	22.950000	0.215328
	22.955000	0.106800
	22.960000	0.212039
	22.965000	0.323856
	22.970000	0.215328
	22.975000	0.103511
	22.980000	0.212039
	22.985000	0.327145
	22.990000	0.218617
	22.995000	0.106800
	23.000000	0.212039
	23.005000	0.327145
	23.010000	0.212039
	23.015000	0.103511
	23.020000	0.212039
	23.025000	0.320567
	23.030000	0.208751
	23.035000	0.096934
	23.040000	0.205462
	23.045000	0.317278
	23.050000	0.205462
	23.055000	0.096934
	23.060000	0.205462
	23.065000	0.310701
	23.070000	0.208751
	23.075000	0.093645
	23.080000	0.205462
	23.085000	0.313990
	23.090000	0.205462
	23.095000	0.096934
	23.100000	0.212039
	23.105000	0.317278
	23.110000	0.205462
	23.115000	0.096934
	23.120000	0.208751
	23.125000	0.317278
	23.130000	0.198884
	23.135000	0.096934
	23.140000	0.212039
	23.145000	0.317278
	23.150000	0.202173
	23.155000	0.100223
	23.160000	0.212039
	23.165000	0.313990
	23.170000	0.205462
	23.175000	0.103511
	23.180000	0.212039
	23.185000	0.320567
	23.190000	0.205462
	23.195000	0.100223
	23.200000	0.215328
	23.205000	0.317278
	23.210000	0.205462
	23.215000	0.096934
	23.220000	0.208751
	23.225000	0.317278
	23.230000	0.205462
	23.235000	0.100223
	23.240000	0.212039
	23.245000	0.317278
	23.250000	0.205462
	23.255000	0.100223
	23.260000	0.215328
	23.265000	0.317278
	23.270000	0.202173
	23.275000	0.100223
	23.280000	0.215328
	23.285000	0.320567
	23.290000	0.202173
	23.295000	0.100223
	23.300000	0.212039
	23.305000	0.313990
	23.310000	0.195596
	23.315000	0.093645
	23.320000	0.205462
	23.325000	0.310701
	23.330000	0.195596
	23.335000	0.090357
	23.340000	0.202173
	23.345000	0.307412
	23.350000	0.192307
	23.355000	0.090357
	23.360000	0.205462
	23.365000	0.307412
	23.370000	0.189018
	23.375000	0.087068
	23.380000	0.195596
	23.385000	0.294257
	23.390000	0.182441
	23.395000	0.080490
	23.400000	0.192307
	23.405000	0.290969
	23.410000	0.175863
	23.415000	0.077202
	23.420000	0.192307
	23.425000	0.294257
	23.430000	0.175863
	23.435000	0.087068
	23.440000	0.198884
	23.445000	0.294257
	23.450000	0.185730
	23.455000	0.093645
	23.460000	0.205462
	23.465000	0.300835
	23.470000	0.192307
	23.475000	0.100223
	23.480000	0.202173
	23.485000	0.297546
	23.490000	0.185730
	23.495000	0.087068
	23.500000	0.195596
	23.505000	0.277814
	23.510000	0.162708
	23.515000	0.064047
	23.520000	0.159420
	23.525000	0.231772
	23.530000	0.106800
	23.535000	0.001561
	23.540000	0.096934
	23.545000	0.156131
	23.550000	0.031160
	23.555000	-0.087234
	23.560000	-0.021460
	23.565000	0.037737
	23.570000	-0.100389
	23.575000	-0.222072
	23.580000	-0.156298
	23.585000	-0.097101
	23.590000	-0.222072
	23.595000	-0.330600
	23.600000	-0.261537
	23.605000	-0.222072
	23.610000	-0.386508
	23.615000	-0.547656
	23.620000	-0.531212
	23.625000	-0.518057
	23.630000	-0.679205
	23.635000	-0.807465
	23.640000	-0.751556
	23.645000	-0.692359
	23.650000	-0.791021
	23.655000	-0.876528
	23.660000	-0.791021
	23.665000	-0.708803
	23.670000	-0.794310
	23.675000	-0.869951
	23.680000	-0.781155
	23.685000	-0.692359
	23.690000	-0.768000
	23.695000	-0.823908
	23.700000	-0.725247
	23.705000	-0.629874
	23.710000	-0.702226
	23.715000	-0.761423
	23.720000	-0.662761
	23.725000	-0.567388
	23.730000	-0.636451
	23.735000	-0.692359
	23.740000	-0.596987
	23.745000	-0.501614
	23.750000	-0.557522
	23.755000	-0.603564
	23.760000	-0.485170
	23.765000	-0.376642
	23.770000	-0.425973
	23.775000	-0.458860
	23.780000	-0.337177
	23.785000	-0.225361
	23.790000	-0.268114
	23.795000	-0.301001
	23.800000	-0.179319
	23.805000	-0.064213
	23.810000	-0.110256
	23.815000	-0.143143
	23.820000	-0.014883
	23.825000	0.096934
	23.830000	0.050892
	23.835000	0.027871
	23.840000	0.159420
	23.845000	0.274525
	23.850000	0.238349
	23.855000	0.205462
	23.860000	0.320567
	23.865000	0.412651
	23.870000	0.346877
	23.875000	0.290969
	23.880000	0.396208
	23.885000	0.485003
	23.890000	0.402785
	23.895000	0.340299
	23.900000	0.435672
	23.905000	0.508024
	23.910000	0.415940
	23.915000	0.346877
	23.920000	0.438961
	23.925000	0.511313
	23.930000	0.409363
	23.935000	0.340299
	23.940000	0.432384
	23.945000	0.494869
	23.950000	0.396208
	23.955000	0.310701
	23.960000	0.402785
	23.965000	0.471848
	23.970000	0.363321
	23.975000	0.284391
	23.980000	0.376475
	23.985000	0.448827
	23.990000	0.346877
	23.995000	0.274525
	24.000000	0.392919
	24.005000	0.491581
	24.010000	0.422518
	24.015000	0.343588
	24.020000	0.435672
	24.025000	0.508024
	24.030000	0.415940
	24.035000	0.346877
	24.040000	0.445539
	24.045000	0.508024
	24.050000	0.399496
	24.055000	0.307412
	24.060000	0.373187
	24.065000	0.432384
	24.070000	0.317278
	24.075000	0.218617
	24.080000	0.297546
	24.085000	0.360032
	24.090000	0.241638
	24.095000	0.172575
	24.100000	0.294257
	24.105000	0.366609
	24.110000	0.258081
	24.115000	0.189018
	24.120000	0.300835
	24.125000	0.376475
	24.130000	0.267948
	24.135000	0.195596
	24.140000	0.313990
	24.145000	0.392919
	24.150000	0.284391
	24.155000	0.215328
	24.160000	0.330433
	24.165000	0.412651
	24.170000	0.307412
	24.175000	0.244927
	24.180000	0.363321
	24.185000	0.438961
	24.190000	0.323856
	24.195000	0.258081
	24.200000	0.379764
	24.205000	0.445539
	24.210000	0.330433
	24.215000	0.271236
	24.220000	0.392919
	24.225000	0.468560
	24.230000	0.350166
	24.235000	0.290969
	24.240000	0.412651
	24.245000	0.488292
	24.250000	0.373187
	24.255000	0.307412
	24.260000	0.445539
	24.265000	0.527757
	24.270000	0.415940
	24.275000	0.353454
	24.280000	0.488292
	24.285000	0.557355
	24.290000	0.435672
	24.295000	0.366609
	24.300000	0.485003
	24.305000	0.554066
	24.310000	0.429095
	24.315000	0.346877
	24.320000	0.465271
	24.325000	0.531045
	24.330000	0.396208
	24.335000	0.317278
	24.340000	0.445539
	24.345000	0.511313
	24.350000	0.376475
	24.355000	0.304124
	24.360000	0.425806
	24.365000	0.494869
	24.370000	0.360032
	24.375000	0.284391
	24.380000	0.409363
	24.385000	0.471848
	24.390000	0.330433
	24.395000	0.254793
	24.400000	0.389630
	24.405000	0.455405
	24.410000	0.313990
	24.415000	0.238349
	24.420000	0.369898
	24.425000	0.438961
	24.430000	0.297546
	24.435000	0.228483
	24.440000	0.360032
	24.445000	0.419229
	24.450000	0.284391
	24.455000	0.215328
	24.460000	0.343588
	24.465000	0.412651
	24.470000	0.264659
	24.475000	0.202173
	24.480000	0.333722
	24.485000	0.392919
	24.490000	0.258081
	24.495000	0.185730
	24.500000	0.317278
	24.505000	0.386342
	24.510000	0.244927
	24.515000	0.179152
	24.520000	0.313990
	24.525000	0.379764
	24.530000	0.238349
	24.535000	0.175863
	24.540000	0.304124
	24.545000	0.369898
	24.550000	0.228483
	24.555000	0.162708
	24.560000	0.297546
	24.565000	0.360032
	24.570000	0.225194
	24.575000	0.156131
	24.580000	0.294257
	24.585000	0.350166
	24.590000	0.208751
	24.595000	0.149554
	24.600000	0.287680
	24.605000	0.350166
	24.610000	0.215328
	24.615000	0.142976
	24.620000	0.281102
	24.625000	0.340299
	24.630000	0.202173
	24.635000	0.133110
	24.640000	0.274525
	24.645000	0.333722
	24.650000	0.192307
	24.655000	0.129821
	24.660000	0.274525
	24.665000	0.333722
	24.670000	0.189018
	24.675000	0.129821
	24.680000	0.264659
	24.685000	0.327145
	24.690000	0.185730
	24.695000	0.123244
	24.700000	0.264659
	24.705000	0.317278
	24.710000	0.175863
	24.715000	0.116666
	24.720000	0.254793
	24.725000	0.313990
	24.730000	0.172575
	24.735000	0.116666
	24.740000	0.254793
	24.745000	0.313990
	24.750000	0.169286
	24.755000	0.110089
	24.760000	0.254793
	24.765000	0.313990
	24.770000	0.172575
	24.775000	0.110089
	24.780000	0.251504
	24.785000	0.307412
	24.790000	0.162708
	24.795000	0.106800
	24.800000	0.244927
	24.805000	0.300835
	24.810000	0.162708
	24.815000	0.113378
	24.820000	0.244927
	24.825000	0.304124
	24.830000	0.162708
	24.835000	0.106800
	24.840000	0.244927
	24.845000	0.307412
	24.850000	0.159420
	24.855000	0.106800
	24.860000	0.248215
	24.865000	0.300835
	24.870000	0.162708
	24.875000	0.106800
	24.880000	0.248215
	24.885000	0.300835
	24.890000	0.156131
	24.895000	0.096934
	24.900000	0.244927
	24.905000	0.300835
	24.910000	0.156131
	24.915000	0.100223
	24.920000	0.248215
	24.925000	0.297546
	24.930000	0.159420
	24.935000	0.103511
	24.940000	0.244927
	24.945000	0.297546
	24.950000	0.156131
	24.955000	0.103511
	24.960000	0.248215
	24.965000	0.297546
	24.970000	0.156131
	24.975000	0.106800
	24.980000	0.251504
	24.985000	0.304124
	24.990000	0.159420
	24.995000	0.110089
	25.000000	0.251504
	25.005000	0.297546
	25.010000	0.156131
	25.015000	0.106800
	25.020000	0.241638
	25.025000	0.297546
	25.030000	0.152842
	25.035000	0.103511
	25.040000	0.244927
	25.045000	0.290969
	25.050000	0.149554
	25.055000	0.103511
	25.060000	0.244927
	25.065000	0.290969
	25.070000	0.142976
	25.075000	0.100223
	25.080000	0.244927
	25.085000	0.294257
	25.090000	0.149554
	25.095000	0.093645
	25.100000	0.244927
	25.105000	0.294257
	25.110000	0.146265
	25.115000	0.100223
	25.120000	0.248215
	25.125000	0.287680
	25.130000	0.142976
	25.135000	0.103511
	25.140000	0.244927
	25.145000	0.290969
	25.150000	0.142976
	25.155000	0.100223
	25.160000	0.244927
	25.165000	0.290969
	25.170000	0.142976
	25.175000	0.106800
	25.180000	0.251504
	25.185000	0.294257
	25.190000	0.149554
	25.195000	0.103511
	25.200000	0.251504
	25.205000	0.297546
	25.210000	0.152842
	25.215000	0.106800
	25.220000	0.251504
	25.225000	0.290969
	25.230000	0.149554
	25.235000	0.103511
	25.240000	0.248215
	25.245000	0.287680
	25.250000	0.136399
	25.255000	0.103511
	25.260000	0.248215
	25.265000	0.290969
	25.270000	0.139687
	25.275000	0.103511
	25.280000	0.251504
	25.285000	0.290969
	25.290000	0.142976
	25.295000	0.106800
	25.300000	0.244927
	25.305000	0.290969
	25.310000	0.146265
	25.315000	0.103511
	25.320000	0.251504
	25.325000	0.294257
	25.330000	0.139687
	25.335000	0.106800
	25.340000	0.254793
	25.345000	0.290969
	25.350000	0.139687
	25.355000	0.103511
	25.360000	0.241638
	25.365000	0.281102
	25.370000	0.136399
	25.375000	0.096934
	25.380000	0.248215
	25.385000	0.284391
	25.390000	0.133110
	25.395000	0.100223
	25.400000	0.248215
	25.405000	0.287680
	25.410000	0.136399
	25.415000	0.096934
	25.420000	0.251504
	25.425000	0.287680
	25.430000	0.133110
	25.435000	0.103511
	25.440000	0.244927
	25.445000	0.284391
	25.450000	0.136399
	25.455000	0.103511
	25.460000	0.244927
	25.465000	0.284391
	25.470000	0.136399
	25.475000	0.100223
	25.480000	0.251504
	25.485000	0.290969
	25.490000	0.136399
	25.495000	0.106800
	25.500000	0.254793
	25.505000	0.287680
	25.510000	0.136399
	25.515000	0.110089
	25.520000	0.261370
	25.525000	0.287680
	25.530000	0.142976
	25.535000	0.110089
	25.540000	0.258081
	25.545000	0.290969
	25.550000	0.142976
	25.555000	0.110089
	25.560000	0.264659
	25.565000	0.290969
	25.570000	0.149554
	25.575000	0.116666
	25.580000	0.267948
	25.585000	0.300835
	25.590000	0.146265
	25.595000	0.123244
	25.600000	0.267948
	25.605000	0.300835
	25.610000	0.152842
	25.615000	0.129821
	25.620000	0.274525
	25.625000	0.300835
	25.630000	0.152842
	25.635000	0.129821
	25.640000	0.277814
	25.645000	0.304124
	25.650000	0.152842
	25.655000	0.126533
	25.660000	0.281102
	25.665000	0.304124
	25.670000	0.159420
	25.675000	0.129821
	25.680000	0.277814
	25.685000	0.300835
	25.690000	0.156131
	25.695000	0.133110
	25.700000	0.281102
	25.705000	0.307412
	25.710000	0.152842
	25.715000	0.129821
	25.720000	0.281102
	25.725000	0.300835
	25.730000	0.149554
	25.735000	0.126533
	25.740000	0.274525
	25.745000	0.297546
	25.750000	0.146265
	25.755000	0.119955
	25.760000	0.277814
	25.765000	0.294257
	25.770000	0.142976
	25.775000	0.116666
	25.780000	0.274525
	25.785000	0.294257
	25.790000	0.139687
	25.795000	0.119955
	25.800000	0.274525
	25.805000	0.294257
	25.810000	0.139687
	25.815000	0.116666
	25.820000	0.267948
	25.825000	0.290969
	25.830000	0.136399
	25.835000	0.116666
	25.840000	0.271236
	25.845000	0.287680
	25.850000	0.139687
	25.855000	0.116666
	25.860000	0.271236
	25.865000	0.287680
	25.870000	0.133110
	25.875000	0.113378
	25.880000	0.264659
	25.885000	0.284391
	25.890000	0.129821
	25.895000	0.110089
	25.900000	0.261370
	25.905000	0.281102
	25.910000	0.129821
	25.915000	0.106800
	25.920000	0.261370
	25.925000	0.281102
	25.930000	0.123244
	25.935000	0.110089
	25.940000	0.258081
	25.945000	0.274525
	25.950000	0.126533
	25.955000	0.106800
	25.960000	0.258081
	25.965000	0.267948
	25.970000	0.119955
	25.975000	0.103511
	25.980000	0.258081
	25.985000	0.271236
	25.990000	0.119955
	25.995000	0.100223
	26.000000	0.254793
	26.005000	0.274525
	26.010000	0.116666
	26.015000	0.100223
	26.020000	0.254793
	26.025000	0.264659
	26.030000	0.116666
	26.035000	0.103511
	26.040000	0.254793
	26.045000	0.274525
	26.050000	0.119955
	26.055000	0.106800
	26.060000	0.258081
	26.065000	0.267948
	26.070000	0.119955
	26.075000	0.106800
	26.080000	0.261370
	26.085000	0.271236
	26.090000	0.116666
	26.095000	0.110089
	26.100000	0.258081
	26.105000	0.274525
	26.110000	0.119955
	26.115000	0.110089
	26.120000	0.264659
	26.125000	0.281102
	26.130000	0.126533
	26.135000	0.119955
	26.140000	0.271236
	26.145000	0.290969
	26.150000	0.133110
	26.155000	0.133110
	26.160000	0.284391
	26.165000	0.300835
	26.170000	0.156131
	26.175000	0.149554
	26.180000	0.310701
	26.185000	0.323856
	26.190000	0.175863
	26.195000	0.179152
	26.200000	0.337011
	26.205000	0.350166
	26.210000	0.195596
	26.215000	0.189018
	26.220000	0.340299
	26.225000	0.353454
	26.230000	0.195596
	26.235000	0.189018
	26.240000	0.333722
	26.245000	0.340299
	26.250000	0.185730
	26.255000	0.175863
	26.260000	0.327145
	26.265000	0.330433
	26.270000	0.169286
	26.275000	0.156131
	26.280000	0.304124
	26.285000	0.307412
	26.290000	0.156131
	26.295000	0.146265
	26.300000	0.290969
	26.305000	0.300835
	26.310000	0.152842
	26.315000	0.152842
	26.320000	0.300835
	26.325000	0.307412
	26.330000	0.159420
	26.335000	0.152842
	26.340000	0.300835
	26.345000	0.304124
	26.350000	0.156131
	26.355000	0.152842
	26.360000	0.284391
	26.365000	0.290969
	26.370000	0.146265
	26.375000	0.139687
	26.380000	0.274525
	26.385000	0.277814
	26.390000	0.136399
	26.395000	0.126533
	26.400000	0.264659
	26.405000	0.261370
	26.410000	0.129821
	26.415000	0.119955
	26.420000	0.258081
	26.425000	0.261370
	26.430000	0.123244
	26.435000	0.110089
	26.440000	0.241638
	26.445000	0.231772
	26.450000	0.067335
	26.455000	0.024582
	26.460000	0.129821
	26.465000	0.096934
	26.470000	-0.077368
	26.475000	-0.123410
	26.480000	-0.021460
	26.485000	-0.044481
	26.490000	-0.192474
	26.495000	-0.222072
	26.500000	-0.106967
	26.505000	-0.129988
	26.510000	-0.271403
	26.515000	-0.297713
	26.520000	-0.205628
	26.525000	-0.228650
	26.530000	-0.379931
	26.535000	-0.409529
	26.540000	-0.304290
	26.545000	-0.317445
	26.550000	-0.452283
	26.555000	-0.468726
	26.560000	-0.343755
	26.565000	-0.333889
	26.570000	-0.432550
	26.575000	-0.435839
	26.580000	-0.314156
	26.585000	-0.301001
	26.590000	-0.416107
	26.595000	-0.416107
	26.600000	-0.287847
	26.605000	-0.271403
	26.610000	-0.383220
	26.615000	-0.373353
	26.620000	-0.251671
	26.625000	-0.231938
	26.630000	-0.333889
	26.635000	-0.327311
	26.640000	-0.202340
	26.645000	-0.189185
	26.650000	-0.301001
	26.655000	-0.287847
	26.660000	-0.166164
	26.665000	-0.153009
	26.670000	-0.251671
	26.675000	-0.245093
	26.680000	-0.120122
	26.685000	-0.100389
	26.690000	-0.189185
	26.695000	-0.179319
	26.700000	-0.057636
	26.705000	-0.031326
	26.710000	-0.120122
	26.715000	-0.103678
	26.720000	0.027871
	26.725000	0.057469
	26.730000	-0.034615
	26.735000	-0.018171
	26.740000	0.110089
	26.745000	0.133110
	26.750000	0.041026
	26.755000	0.050892
	26.760000	0.182441
	26.765000	0.202173
	26.770000	0.100223
	26.775000	0.110089
	26.780000	0.235060
	26.785000	0.248215
	26.790000	0.149554
	26.795000	0.156131
	26.800000	0.274525
	26.805000	0.290969
	26.810000	0.192307
	26.815000	0.195596
	26.820000	0.313990
	26.825000	0.323856
	26.830000	0.218617
	26.835000	0.225194
	26.840000	0.356743
	26.845000	0.360032
	26.850000	0.254793
	26.855000	0.267948
	26.860000	0.402785
	26.865000	0.422518
	26.870000	0.330433
	26.875000	0.366609
	26.880000	0.527757
	26.885000	0.537623
	26.890000	0.422518
	26.895000	0.422518
	26.900000	0.550778
	26.905000	0.537623
	26.910000	0.392919
	26.915000	0.379764
	26.920000	0.475137
	26.925000	0.455405
	26.930000	0.304124
	26.935000	0.294257
	26.940000	0.396208
	26.945000	0.363321
	26.950000	0.231772
	26.955000	0.231772
	26.960000	0.356743
	26.965000	0.337011
	26.970000	0.208751
	26.975000	0.212039
	26.980000	0.333722
	26.985000	0.317278
	26.990000	0.182441
	26.995000	0.185730
	27.000000	0.313990
	27.005000	0.297546
	27.010000	0.162708
	27.015000	0.165997
	27.020000	0.297546
	27.025000	0.281102
	27.030000	0.139687
	27.035000	0.146265
	27.040000	0.274525
	27.045000	0.258081
	27.050000	0.119955
	27.055000	0.126533
	27.060000	0.254793
	27.065000	0.238349
	27.070000	0.100223
	27.075000	0.116666
	27.080000	0.248215
	27.085000	0.241638
	27.090000	0.103511
	27.095000	0.126533
	27.100000	0.261370
	27.105000	0.248215
	27.110000	0.119955
	27.115000	0.139687
	27.120000	0.274525
	27.125000	0.261370
	27.130000	0.129821
	27.135000	0.146265
	27.140000	0.294257
	27.145000	0.284391
	27.150000	0.146265
	27.155000	0.169286
	27.160000	0.307412
	27.165000	0.287680
	27.170000	0.156131
	27.175000	0.172575
	27.180000	0.307412
	27.185000	0.287680
	27.190000	0.149554
	27.195000	0.169286
	27.200000	0.304124
	27.205000	0.287680
	27.210000	0.136399
	27.215000	0.156131
	27.220000	0.294257
	27.225000	0.274525
	27.230000	0.129821
	27.235000	0.149554
	27.240000	0.287680
	27.245000	0.261370
	27.250000	0.119955
	27.255000	0.142976
	27.260000	0.281102
	27.265000	0.258081
	27.270000	0.116666
	27.275000	0.139687
	27.280000	0.277814
	27.285000	0.248215
	27.290000	0.110089
	27.295000	0.133110
	27.300000	0.277814
	27.305000	0.254793
	27.310000	0.106800
	27.315000	0.136399
	27.320000	0.274525
	27.325000	0.248215
	27.330000	0.103511
	27.335000	0.126533
	27.340000	0.271236
	27.345000	0.241638
	27.350000	0.103511
	27.355000	0.129821
	27.360000	0.267948
	27.365000	0.244927
	27.370000	0.096934
	27.375000	0.129821
	27.380000	0.271236
	27.385000	0.241638
	27.390000	0.100223
	27.395000	0.129821
	27.400000	0.267948
	27.405000	0.241638
	27.410000	0.096934
	27.415000	0.126533
	27.420000	0.271236
	27.425000	0.238349
	27.430000	0.090357
	27.435000	0.126533
	27.440000	0.267948
	27.445000	0.238349
	27.450000	0.093645
	27.455000	0.123244
	27.460000	0.264659
	27.465000	0.235060
	27.470000	0.090357
	27.475000	0.123244
	27.480000	0.261370
	27.485000	0.231772
	27.490000	0.093645
	27.495000	0.116666
	27.500000	0.261370
	27.505000	0.235060
	27.510000	0.083779
	27.515000	0.116666
	27.520000	0.258081
	27.525000	0.235060
	27.530000	0.080490
	27.535000	0.116666
	27.540000	0.261370
	27.545000	0.228483
	27.550000	0.080490
	27.555000	0.113378
	27.560000	0.254793
	27.565000	0.221905
	27.570000	0.070624
	27.575000	0.110089
	27.580000	0.254793
	27.585000	0.221905
	27.590000	0.080490
	27.595000	0.116666
	27.600000	0.254793
	27.605000	0.221905
	27.610000	0.077202
	27.615000	0.110089
	27.620000	0.254793
	27.625000	0.221905
	27.630000	0.073913
	27.635000	0.106800
	27.640000	0.248215
	27.645000	0.212039
	27.650000	0.064047
	27.655000	0.106800
	27.660000	0.248215
	27.665000	0.208751
	27.670000	0.070624
	27.675000	0.103511
	27.680000	0.244927
	27.685000	0.212039
	27.690000	0.067335
	27.695000	0.106800
	27.700000	0.248215
	27.705000	0.215328
	27.710000	0.070624
	27.715000	0.110089
	27.720000	0.251504
	27.725000	0.212039
	27.730000	0.073913
	27.735000	0.106800
	27.740000	0.254793
	27.745000	0.215328
	27.750000	0.067335
	27.755000	0.106800
	27.760000	0.248215
	27.765000	0.212039
	27.770000	0.073913
	27.775000	0.113378
	27.780000	0.258081
	27.785000	0.218617
	27.790000	0.077202
	27.795000	0.116666
	27.800000	0.261370
	27.805000	0.218617
	27.810000	0.083779
	27.815000	0.123244
	27.820000	0.267948
	27.825000	0.231772
	27.830000	0.090357
	27.835000	0.136399
	27.840000	0.277814
	27.845000	0.231772
	27.850000	0.093645
	27.855000	0.133110
	27.860000	0.277814
	27.865000	0.231772
	27.870000	0.093645
	27.875000	0.129821
	27.880000	0.281102
	27.885000	0.231772
	27.890000	0.087068
	27.895000	0.133110
	27.900000	0.277814
	27.905000	0.231772
	27.910000	0.087068
	27.915000	0.133110
	27.920000	0.277814
	27.925000	0.238349
	27.930000	0.090357
	27.935000	0.139687
	27.940000	0.287680
	27.945000	0.235060
	27.950000	0.093645
	27.955000	0.139687
	27.960000	0.281102
	27.965000	0.235060
	27.970000	0.093645
	27.975000	0.142976
	27.980000	0.287680
	27.985000	0.235060
	27.990000	0.096934
	27.995000	0.146265
	28.000000	0.290969
	28.005000	0.244927
	28.010000	0.100223
	28.015000	0.142976
	28.020000	0.290969
	28.025000	0.241638
	28.030000	0.100223
	28.035000	0.146265
	28.040000	0.290969
	28.045000	0.244927
	28.050000	0.096934
	28.055000	0.149554
	28.060000	0.287680
	28.065000	0.238349
	28.070000	0.093645
	28.075000	0.139687
	28.080000	0.281102
	28.085000	0.235060
	28.090000	0.090357
	28.095000	0.139687
	28.100000	0.281102
	28.105000	0.231772
	28.110000	0.090357
	28.115000	0.139687
	28.120000	0.277814
	28.125000	0.225194
	28.130000	0.083779
	28.135000	0.133110
	28.140000	0.271236
	28.145000	0.221905
	28.150000	0.080490
	28.155000	0.129821
	28.160000	0.267948
	28.165000	0.218617
	28.170000	0.073913
	28.175000	0.126533
	28.180000	0.267948
	28.185000	0.215328
	28.190000	0.073913
	28.195000	0.129821
	28.200000	0.271236
	28.205000	0.212039
	28.210000	0.073913
	28.215000	0.126533
	28.220000	0.264659
	28.225000	0.212039
	28.230000	0.070624
	28.235000	0.123244
	28.240000	0.267948
	28.245000	0.212039
	28.250000	0.070624
	28.255000	0.133110
	28.260000	0.261370
	28.265000	0.212039
	28.270000	0.067335
	28.275000	0.123244
	28.280000	0.264659
	28.285000	0.202173
	28.290000	0.070624
	28.295000	0.126533
	28.300000	0.264659
	28.305000	0.208751
	28.310000	0.073913
	28.315000	0.126533
	28.320000	0.264659
	28.325000	0.208751
	28.330000	0.073913
	28.335000	0.136399
	28.340000	0.267948
	28.345000	0.215328
	28.350000	0.073913
	28.355000	0.133110
	28.360000	0.267948
	28.365000	0.215328
	28.370000	0.073913
	28.375000	0.136399
	28.380000	0.284391
	28.385000	0.218617
	28.390000	0.090357
	28.395000	0.149554
	28.400000	0.284391
	28.405000	0.231772
	28.410000	0.096934
	28.415000	0.156131
	28.420000	0.297546
	28.425000	0.235060
	28.430000	0.103511
	28.435000	0.159420
	28.440000	0.297546
	28.445000	0.238349
	28.450000	0.103511
	28.455000	0.162708
	28.460000	0.294257
	28.465000	0.231772
	28.470000	0.100223
	28.475000	0.159420
	28.480000	0.290969
	28.485000	0.225194
	28.490000	0.093645
	28.495000	0.156131
	28.500000	0.287680
	28.505000	0.225194
	28.510000	0.087068
	28.515000	0.149554
	28.520000	0.287680
	28.525000	0.221905
	28.530000	0.083779
	28.535000	0.156131
	28.540000	0.290969
	28.545000	0.231772
	28.550000	0.103511
	28.555000	0.172575
	28.560000	0.320567
	28.565000	0.264659
	28.570000	0.136399
	28.575000	0.212039
	28.580000	0.360032
	28.585000	0.300835
	28.590000	0.175863
	28.595000	0.251504
	28.600000	0.392919
	28.605000	0.340299
	28.610000	0.212039
	28.615000	0.284391
	28.620000	0.425806
	28.625000	0.366609
	28.630000	0.235060
	28.635000	0.297546
	28.640000	0.435672
	28.645000	0.366609
	28.650000	0.225194
	28.655000	0.294257
	28.660000	0.429095
	28.665000	0.353454
	28.670000	0.215328
	28.675000	0.281102
	28.680000	0.409363
	28.685000	0.333722
	28.690000	0.198884
	28.695000	0.264659
	28.700000	0.396208
	28.705000	0.320567
	28.710000	0.185730
	28.715000	0.251504
	28.720000	0.379764
	28.725000	0.310701
	28.730000	0.172575
	28.735000	0.244927
	28.740000	0.366609
	28.745000	0.290969
	28.750000	0.159420
	28.755000	0.228483
	28.760000	0.353454
	28.765000	0.281102
	28.770000	0.142976
	28.775000	0.215328
	28.780000	0.340299
	28.785000	0.271236
	28.790000	0.133110
	28.795000	0.198884
	28.800000	0.327145
	28.805000	0.244927
	28.810000	0.113378
	28.815000	0.175863
	28.820000	0.304124
	28.825000	0.225194
	28.830000	0.087068
	28.835000	0.152842
	28.840000	0.274525
	28.845000	0.198884
	28.850000	0.057469
	28.855000	0.126533
	28.860000	0.238349
	28.865000	0.156131
	28.870000	0.014716
	28.875000	0.060758
	28.880000	0.159420
	28.885000	0.050892
	28.890000	-0.120122
	28.895000	-0.116833
	28.900000	-0.067502
	28.905000	-0.199051
	28.910000	-0.386508
	28.915000	-0.376642
	28.920000	-0.291135
	28.925000	-0.376642
	28.930000	-0.521346
	28.935000	-0.472015
	28.940000	-0.370065
	28.945000	-0.445705
	28.950000	-0.564099
	28.955000	-0.508191
	28.960000	-0.402952
	28.965000	-0.468726
	28.970000	-0.593698
	28.975000	-0.537790
	28.980000	-0.435839
	28.985000	-0.508191
	28.990000	-0.626585
	28.995000	-0.570677
	29.000000	-0.455571
	29.005000	-0.504902
	29.010000	-0.610141
	29.015000	-0.547656
	29.020000	-0.419395
	29.025000	-0.458860
	29.030000	-0.557522
	29.035000	-0.511480
	29.040000	-0.412818
	29.045000	-0.475304
	29.050000	-0.593698
	29.055000	-0.560811
	29.060000	-0.462149
	29.065000	-0.537790
	29.070000	-0.662761
	29.075000	-0.623296
	29.080000	-0.527923
	29.085000	-0.590409
	29.090000	-0.712092
	29.095000	-0.659472
	29.100000	-0.557522
	29.105000	-0.606853
	29.110000	-0.698937
	29.115000	-0.643029
	29.120000	-0.527923
	29.125000	-0.564099
	29.130000	-0.649606
	29.135000	-0.580543
	29.140000	-0.462149
	29.145000	-0.491747
	29.150000	-0.573965
	29.155000	-0.495036
	29.160000	-0.363487
	29.165000	-0.389797
	29.170000	-0.462149
	29.175000	-0.376642
	29.180000	-0.245093
	29.185000	-0.264826
	29.190000	-0.333889
	29.195000	-0.248382
	29.200000	-0.116833
	29.205000	-0.136565
	29.210000	-0.199051
	29.215000	-0.110256
	29.220000	0.021293
	29.225000	-0.001728
	29.230000	-0.067502
	29.235000	0.027871
	29.240000	0.169286
	29.245000	0.159420
	29.250000	0.110089
	29.255000	0.212039
	29.260000	0.350166
	29.265000	0.330433
	29.270000	0.261370
	29.275000	0.340299
	29.280000	0.468560
	29.285000	0.422518
	29.290000	0.340299
	29.295000	0.409363
	29.300000	0.514602
	29.305000	0.458694
	29.310000	0.353454
	29.315000	0.412651
	29.320000	0.508024
	29.325000	0.438961
	29.330000	0.330433
	29.335000	0.392919
	29.340000	0.494869
	29.345000	0.438961
	29.350000	0.353454
	29.355000	0.442250
	29.360000	0.573799
	29.365000	0.537623
	29.370000	0.435672
	29.375000	0.511313
	29.380000	0.636285
	29.385000	0.570510
	29.390000	0.458694
	29.395000	0.527757
	29.400000	0.619841
	29.405000	0.508024
	29.410000	0.376475
	29.415000	0.425806
	29.420000	0.521179
	29.425000	0.422518
	29.430000	0.294257
	29.435000	0.360032
	29.440000	0.458694
	29.445000	0.376475
	29.450000	0.261370
	29.455000	0.337011
	29.460000	0.445539
	29.465000	0.376475
	29.470000	0.271236
	29.475000	0.343588
	29.480000	0.448827
	29.485000	0.366609
	29.490000	0.244927
	29.495000	0.313990
	29.500000	0.419229
	29.505000	0.337011
	29.510000	0.225194
	29.515000	0.297546
	29.520000	0.412651
	29.525000	0.333722
	29.530000	0.228483
	29.535000	0.313990
	29.540000	0.425806
	29.545000	0.353454
	29.550000	0.235060
	29.555000	0.313990
	29.560000	0.419229
	29.565000	0.333722
	29.570000	0.225194
	29.575000	0.310701
	29.580000	0.429095
	29.585000	0.346877
	29.590000	0.238349
	29.595000	0.320567
	29.600000	0.435672
	29.605000	0.350166
	29.610000	0.248215
	29.615000	0.337011
	29.620000	0.448827
	29.625000	0.369898
	29.630000	0.251504
	29.635000	0.340299
	29.640000	0.442250
	29.645000	0.360032
	29.650000	0.248215
	29.655000	0.343588
	29.660000	0.458694
	29.665000	0.369898
	29.670000	0.267948
	29.675000	0.360032
	29.680000	0.468560
	29.685000	0.376475
	29.690000	0.261370
	29.695000	0.343588
	29.700000	0.452116
	29.705000	0.360032
	29.710000	0.238349
	29.715000	0.337011
	29.720000	0.442250
	29.725000	0.343588
	29.730000	0.228483
	29.735000	0.310701
	29.740000	0.425806
	29.745000	0.327145
	29.750000	0.208751
	29.755000	0.304124
	29.760000	0.409363
	29.765000	0.310701
	29.770000	0.198884
	29.775000	0.287680
	29.780000	0.402785
	29.785000	0.300835
	29.790000	0.185730
	29.795000	0.281102
	29.800000	0.392919
	29.805000	0.290969
	29.810000	0.175863
	29.815000	0.271236
	29.820000	0.386342
	29.825000	0.277814
	29.830000	0.169286
	29.835000	0.264659
	29.840000	0.376475
	29.845000	0.277814
	29.850000	0.156131
	29.855000	0.258081
	29.860000	0.366609
	29.865000	0.264659
	29.870000	0.152842
	29.875000	0.254793
	29.880000	0.363321
	29.885000	0.264659
	29.890000	0.152842
	29.895000	0.254793
	29.900000	0.366609
	29.905000	0.261370
	29.910000	0.156131
	29.915000	0.261370
	29.920000	0.369898
	29.925000	0.264659
	29.930000	0.156131
	29.935000	0.254793
	29.940000	0.363321
	29.945000	0.264659
	29.950000	0.156131
	29.955000	0.258081
	29.960000	0.369898
	29.965000	0.264659
	29.970000	0.159420
	29.975000	0.254793
	29.980000	0.366609
	29.985000	0.258081
	29.990000	0.146265
	29.995000	0.248215
	30.000000	0.353454
	30.005000	0.248215
	30.010000	0.136399
	30.015000	0.238349
	30.020000	0.346877
	30.025000	0.238349
	30.030000	0.123244
	30.035000	0.231772
	30.040000	0.337011
	30.045000	0.228483
	30.050000	0.123244
	30.055000	0.225194
	30.060000	0.333722
	30.065000	0.228483
	30.070000	0.113378
	30.075000	0.221905
	30.080000	0.327145
	30.085000	0.218617
	30.090000	0.113378
	30.095000	0.221905
	30.100000	0.330433
	30.105000	0.221905
	30.110000	0.110089
	30.115000	0.221905
	30.120000	0.327145
	30.125000	0.215328
	30.130000	0.116666
	30.135000	0.221905
	30.140000	0.323856
	30.145000	0.221905
	30.150000	0.110089
	30.155000	0.228483
	30.160000	0.333722
	30.165000	0.228483
	30.170000	0.113378
	30.175000	0.228483
	30.180000	0.330433
	30.185000	0.218617
	30.190000	0.116666
	30.195000	0.221905
	30.200000	0.330433
	30.205000	0.212039
	30.210000	0.110089
	30.215000	0.215328
	30.220000	0.320567
	30.225000	0.208751
	30.230000	0.100223
	30.235000	0.205462
	30.240000	0.310701
	30.245000	0.195596
	30.250000	0.090357
	30.255000	0.205462
	30.260000	0.300835
	30.265000	0.189018
	30.270000	0.090357
	30.275000	0.195596
	30.280000	0.297546
	30.285000	0.179152
	30.290000	0.080490
	30.295000	0.195596
	30.300000	0.294257
	30.305000	0.179152
	30.310000	0.077202
	30.315000	0.182441
	30.320000	0.284391
	30.325000	0.172575
	30.330000	0.070624
	30.335000	0.182441
	30.340000	0.277814
	30.345000	0.165997
	30.350000	0.060758
	30.355000	0.172575
	30.360000	0.277814
	30.365000	0.162708
	30.370000	0.060758
	30.375000	0.172575
	30.380000	0.264659
	30.385000	0.149554
	30.390000	0.047603
	30.395000	0.159420
	30.400000	0.261370
	30.405000	0.149554
	30.410000	0.044314
	30.415000	0.165997
	30.420000	0.261370
	30.425000	0.142976
	30.430000	0.047603
	30.435000	0.159420
	30.440000	0.261370
	30.445000	0.146265
	30.450000	0.050892
	30.455000	0.162708
	30.460000	0.264659
	30.465000	0.146265
	30.470000	0.050892
	30.475000	0.172575
	30.480000	0.261370
	30.485000	0.142976
	30.490000	0.050892
	30.495000	0.165997
	30.500000	0.261370
	30.505000	0.149554
	30.510000	0.054181
	30.515000	0.169286
	30.520000	0.261370
	30.525000	0.142976
	30.530000	0.041026
	30.535000	0.149554
	30.540000	0.244927
	30.545000	0.123244
	30.550000	0.018005
	30.555000	0.136399
	30.560000	0.231772
	30.565000	0.106800
	30.570000	0.011427
	30.575000	0.133110
	30.580000	0.221905
	30.585000	0.106800
	30.590000	0.008138
	30.595000	0.129821
	30.600000	0.225194
	30.605000	0.103511
	30.610000	0.011427
	30.615000	0.133110
	30.620000	0.225194
	30.625000	0.106800
	30.630000	0.011427
	30.635000	0.129821
	30.640000	0.225194
	30.645000	0.106800
	30.650000	0.011427
	30.655000	0.129821
	30.660000	0.225194
	30.665000	0.103511
	30.670000	0.018005
	30.675000	0.136399
	30.680000	0.225194
	30.685000	0.100223
	30.690000	0.014716
	30.695000	0.136399
	30.700000	0.225194
	30.705000	0.106800
	30.710000	0.018005
	30.715000	0.136399
	30.720000	0.221905
	30.725000	0.106800
	30.730000	0.018005
	30.735000	0.136399
	30.740000	0.225194
	30.745000	0.106800
	30.750000	0.018005
	30.755000	0.136399
	30.760000	0.228483
	30.765000	0.106800
	30.770000	0.021293
	30.775000	0.142976
	30.780000	0.231772
	30.785000	0.110089
	30.790000	0.021293
	30.795000	0.142976
	30.800000	0.231772
	30.805000	0.103511
	30.810000	0.021293
	30.815000	0.142976
	30.820000	0.228483
	30.825000	0.106800
	30.830000	0.024582
	30.835000	0.139687
	30.840000	0.228483
	30.845000	0.106800
	30.850000	0.021293
	30.855000	0.142976
	30.860000	0.228483
	30.865000	0.106800
	30.870000	0.021293
	30.875000	0.142976
	30.880000	0.228483
	30.885000	0.106800
	30.890000	0.018005
	30.895000	0.142976
	30.900000	0.228483
	30.905000	0.106800
	30.910000	0.014716
	30.915000	0.142976
	30.920000	0.231772
	30.925000	0.103511
	30.930000	0.018005
	30.935000	0.139687
	30.940000	0.225194
	30.945000	0.103511
	30.950000	0.014716
	30.955000	0.139687
	30.960000	0.225194
	30.965000	0.093645
	30.970000	0.014716
	30.975000	0.139687
	30.980000	0.218617
	30.985000	0.100223
	30.990000	0.014716
	30.995000	0.142976
	31.000000	0.225194
	31.005000	0.096934
	31.010000	0.018005
	31.015000	0.146265
	31.020000	0.225194
	31.025000	0.100223
	31.030000	0.014716
	31.035000	0.142976
	31.040000	0.221905
	31.045000	0.100223
	31.050000	0.018005
	31.055000	0.142976
	31.060000	0.228483
	31.065000	0.100223
	31.070000	0.024582
	31.075000	0.146265
	31.080000	0.228483
	31.085000	0.103511
	31.090000	0.018005
	31.095000	0.146265
	31.100000	0.221905
	31.105000	0.093645
	31.110000	0.011427
	31.115000	0.142976
	31.120000	0.225194
	31.125000	0.093645
	31.130000	0.014716
	31.135000	0.139687
	31.140000	0.221905
	31.145000	0.093645
	31.150000	0.018005
	31.155000	0.146265
	31.160000	0.221905
	31.165000	0.096934
	31.170000	0.021293
	31.175000	0.149554
	31.180000	0.228483
	31.185000	0.096934
	31.190000	0.018005
	31.195000	0.159420
	31.200000	0.235060
	31.205000	0.100223
	31.210000	0.027871
	31.215000	0.159420
	31.220000	0.238349
	31.225000	0.106800
	31.230000	0.037737
	31.235000	0.165997
	31.240000	0.248215
	31.245000	0.116666
	31.250000	0.044314
	31.255000	0.175863
	31.260000	0.248215
	31.265000	0.126533
	31.270000	0.047603
	31.275000	0.185730
	31.280000	0.261370
	31.285000	0.133110
	31.290000	0.057469
	31.295000	0.192307
	31.300000	0.264659
	31.305000	0.136399
	31.310000	0.060758
	31.315000	0.189018
	31.320000	0.267948
	31.325000	0.136399
	31.330000	0.057469
	31.335000	0.195596
	31.340000	0.267948
	31.345000	0.136399
	31.350000	0.064047
	31.355000	0.192307
	31.360000	0.271236
	31.365000	0.133110
	31.370000	0.060758
	31.375000	0.192307
	31.380000	0.261370
	31.385000	0.133110
	31.390000	0.057469
	31.395000	0.192307
	31.400000	0.258081
	31.405000	0.129821
	31.410000	0.050892
	31.415000	0.185730
	31.420000	0.258081
	31.425000	0.116666
	31.430000	0.050892
	31.435000	0.185730
	31.440000	0.258081
	31.445000	0.116666
	31.450000	0.044314
	31.455000	0.182441
	31.460000	0.254793
	31.465000	0.119955
	31.470000	0.047603
	31.475000	0.179152
	31.480000	0.251504
	31.485000	0.110089
	31.490000	0.047603
	31.495000	0.179152
	31.500000	0.244927
	31.505000	0.110089
	31.510000	0.044314
	31.515000	0.185730
	31.520000	0.254793
	31.525000	0.113378
	31.530000	0.054181
	31.535000	0.189018
	31.540000	0.258081
	31.545000	0.126533
	31.550000	0.050892
	31.555000	0.192307
	31.560000	0.264659
	31.565000	0.119955
	31.570000	0.064047
	31.575000	0.198884
	31.580000	0.261370
	31.585000	0.129821
	31.590000	0.060758
	31.595000	0.198884
	31.600000	0.264659
	31.605000	0.126533
	31.610000	0.064047
	31.615000	0.202173
	31.620000	0.267948
	31.625000	0.126533
	31.630000	0.064047
	31.635000	0.202173
	31.640000	0.267948
	31.645000	0.126533
	31.650000	0.064047
	31.655000	0.202173
	31.660000	0.267948
	31.665000	0.126533
	31.670000	0.060758
	31.675000	0.195596
	31.680000	0.261370
	31.685000	0.126533
	31.690000	0.064047
	31.695000	0.195596
	31.700000	0.258081
	31.705000	0.119955
	31.710000	0.057469
	31.715000	0.192307
	31.720000	0.251504
	31.725000	0.113378
	31.730000	0.050892
	31.735000	0.189018
	31.740000	0.251504
	31.745000	0.110089
	31.750000	0.044314
	31.755000	0.182441
	31.760000	0.238349
	31.765000	0.103511
	31.770000	0.041026
	31.775000	0.179152
	31.780000	0.235060
	31.785000	0.100223
	31.790000	0.037737
	31.795000	0.179152
	31.800000	0.235060
	31.805000	0.103511
	31.810000	0.037737
	31.815000	0.172575
	31.820000	0.238349
	31.825000	0.096934
	31.830000	0.041026
	31.835000	0.172575
	31.840000	0.231772
	31.845000	0.096934
	31.850000	0.041026
	31.855000	0.175863
	31.860000	0.235060
	31.865000	0.096934
	31.870000	0.037737
	31.875000	0.175863
	31.880000	0.238349
	31.885000	0.106800
	31.890000	0.050892
	31.895000	0.185730
	31.900000	0.244927
	31.905000	0.106800
	31.910000	0.057469
	31.915000	0.192307
	31.920000	0.244927
	31.925000	0.110089
	31.930000	0.050892
	31.935000	0.192307
	31.940000	0.244927
	31.945000	0.106800
	31.950000	0.054181
	31.955000	0.189018
	31.960000	0.238349
	31.965000	0.106800
	31.970000	0.047603
	31.975000	0.182441
	31.980000	0.238349
	31.985000	0.096934
	31.990000	0.041026
	31.995000	0.169286
	32.000000	0.218617
	32.005000	0.080490
	32.010000	0.021293
	32.015000	0.156131
	32.020000	0.202173
	32.025000	0.067335
	32.030000	0.014716
	32.035000	0.142976
	32.040000	0.185730
	32.045000	0.057469
	32.050000	-0.001728
	32.055000	0.119955
	32.060000	0.169286
	32.065000	0.027871
	32.070000	-0.031326
	32.075000	0.077202
	32.080000	0.110089
	32.085000	-0.037904
	32.090000	-0.113544
	32.095000	-0.001728
	32.100000	0.037737
	32.105000	-0.093812
	32.110000	-0.166164
	32.115000	-0.054347
	32.120000	-0.024749
	32.125000	-0.166164
	32.130000	-0.231938
	32.135000	-0.129988
	32.140000	-0.103678
	32.145000	-0.251671
	32.150000	-0.320734
	32.155000	-0.215495
	32.160000	-0.185896
	32.165000	-0.324023
	32.170000	-0.393086
	32.175000	-0.291135
	32.180000	-0.258248
	32.185000	-0.393086
	32.190000	-0.455571
	32.195000	-0.347044
	32.200000	-0.307579
	32.205000	-0.422684
	32.210000	-0.465438
	32.215000	-0.343755
	32.220000	-0.294424
	32.225000	-0.399663
	32.230000	-0.442417
	32.235000	-0.324023
	32.240000	-0.268114
	32.245000	-0.379931
	32.250000	-0.416107
	32.255000	-0.301001
	32.260000	-0.248382
	32.265000	-0.353621
	32.270000	-0.386508
	32.275000	-0.258248
	32.280000	-0.205628
	32.285000	-0.310868
	32.290000	-0.356910
	32.295000	-0.235227
	32.300000	-0.182607
	32.305000	-0.284558
	32.310000	-0.314156
	32.315000	-0.189185
	32.320000	-0.139854
	32.325000	-0.241804
	32.330000	-0.271403
	32.335000	-0.153009
	32.340000	-0.093812
	32.345000	-0.195762
	32.350000	-0.225361
	32.355000	-0.103678
	32.360000	-0.054347
	32.365000	-0.149720
	32.370000	-0.179319
	32.375000	-0.054347
	32.380000	-0.001728
	32.385000	-0.097101
	32.390000	-0.123410
	32.395000	0.001561
	32.400000	0.054181
	32.405000	-0.037904
	32.410000	-0.064213
	32.415000	0.067335
	32.420000	0.116666
	32.425000	0.021293
	32.430000	-0.001728
	32.435000	0.126533
	32.440000	0.179152
	32.445000	0.083779
	32.450000	0.060758
	32.455000	0.179152
	32.460000	0.225194
	32.465000	0.116666
	32.470000	0.090357
	32.475000	0.212039
	32.480000	0.251504
	32.485000	0.142976
	32.490000	0.103511
	32.495000	0.228483
	32.500000	0.267948
	32.505000	0.149554
	32.510000	0.110089
	32.515000	0.231772
	32.520000	0.267948
	32.525000	0.133110
	32.530000	0.087068
	32.535000	0.208751
	32.540000	0.235060
	32.545000	0.100223
	32.550000	0.057469
	32.555000	0.182441
	32.560000	0.225194
	32.565000	0.113378
	32.570000	0.100223
	32.575000	0.254793
	32.580000	0.320567
	32.585000	0.215328
	32.590000	0.175863
	32.595000	0.313990
	32.600000	0.363321
	32.605000	0.231772
	32.610000	0.169286
	32.615000	0.274525
	32.620000	0.297546
	32.625000	0.162708
	32.630000	0.123244
	32.635000	0.244927
	32.640000	0.274525
	32.645000	0.133110
	32.650000	0.100223
	32.655000	0.228483
	32.660000	0.264659
	32.665000	0.142976
	32.670000	0.100223
	32.675000	0.221905
	32.680000	0.251504
	32.685000	0.123244
	32.690000	0.080490
	32.695000	0.205462
	32.700000	0.235060
	32.705000	0.110089
	32.710000	0.077202
	32.715000	0.208751
	32.720000	0.241638
	32.725000	0.110089
	32.730000	0.083779
	32.735000	0.225194
	32.740000	0.258081
	32.745000	0.142976
	32.750000	0.129821
	32.755000	0.281102
	32.760000	0.330433
	32.765000	0.208751
	32.770000	0.182441
	32.775000	0.317278
	32.780000	0.346877
	32.785000	0.221905
	32.790000	0.192307
	32.795000	0.337011
	32.800000	0.369898
	32.805000	0.238349
	32.810000	0.215328
	32.815000	0.360032
	32.820000	0.392919
	32.825000	0.261370
	32.830000	0.244927
	32.835000	0.396208
	32.840000	0.432384
	32.845000	0.304124
	32.850000	0.281102
	32.855000	0.422518
	32.860000	0.455405
	32.865000	0.310701
	32.870000	0.277814
	32.875000	0.415940
	32.880000	0.435672
	32.885000	0.284391
	32.890000	0.248215
	32.895000	0.383053
	32.900000	0.406074
	32.905000	0.254793
	32.910000	0.218617
	32.915000	0.360032
	32.920000	0.379764
	32.925000	0.231772
	32.930000	0.202173
	32.935000	0.343588
	32.940000	0.360032
	32.945000	0.208751
	32.950000	0.185730
	32.955000	0.327145
	32.960000	0.350166
	32.965000	0.198884
	32.970000	0.179152
	32.975000	0.323856
	32.980000	0.340299
	32.985000	0.185730
	32.990000	0.165997
	32.995000	0.307412
	33.000000	0.330433
	33.005000	0.175863
	33.010000	0.149554
	33.015000	0.297546
	33.020000	0.317278
	33.025000	0.165997
	33.030000	0.139687
	33.035000	0.294257
	33.040000	0.307412
	33.045000	0.152842
	33.050000	0.133110
	33.055000	0.284391
	33.060000	0.300835
	33.065000	0.146265
	33.070000	0.123244
	33.075000	0.267948
	33.080000	0.297546
	33.085000	0.139687
	33.090000	0.116666
	33.095000	0.264659
	33.100000	0.287680
	33.105000	0.139687
	33.110000	0.116666
	33.115000	0.261370
	33.120000	0.277814
	33.125000	0.129821
	33.130000	0.103511
	33.135000	0.264659
	33.140000	0.277814
	33.145000	0.123244
	33.150000	0.096934
	33.155000	0.254793
	33.160000	0.267948
	33.165000	0.116666
	33.170000	0.100223
	33.175000	0.251504
	33.180000	0.267948
	33.185000	0.119955
	33.190000	0.100223
	33.195000	0.251504
	33.200000	0.264659
	33.205000	0.110089
	33.210000	0.096934
	33.215000	0.244927
	33.220000	0.264659
	33.225000	0.106800
	33.230000	0.090357
	33.235000	0.241638
	33.240000	0.258081
	33.245000	0.106800
	33.250000	0.090357
	33.255000	0.241638
	33.260000	0.258081
	33.265000	0.103511
	33.270000	0.090357
	33.275000	0.241638
	33.280000	0.254793
	33.285000	0.100223
	33.290000	0.090357
	33.295000	0.235060
	33.300000	0.251504
	33.305000	0.096934
	33.310000	0.083779
	33.315000	0.241638
	33.320000	0.248215
	33.325000	0.096934
	33.330000	0.083779
	33.335000	0.238349
	33.340000	0.248215
	33.345000	0.093645
	33.350000	0.080490
	33.355000	0.235060
	33.360000	0.241638
	33.365000	0.093645
	33.370000	0.077202
	33.375000	0.231772
	33.380000	0.248215
	33.385000	0.090357
	33.390000	0.080490
	33.395000	0.228483
	33.400000	0.244927
	33.405000	0.087068
	33.410000	0.077202
	33.415000	0.235060
	33.420000	0.241638
	33.425000	0.087068
	33.430000	0.080490
	33.435000	0.231772
	33.440000	0.241638
	33.445000	0.083779
	33.450000	0.077202
	33.455000	0.231772
	33.460000	0.241638
	33.465000	0.087068
	33.470000	0.083779
	33.475000	0.228483
	33.480000	0.235060
	33.485000	0.083779
	33.490000	0.077202
	33.495000	0.231772
	33.500000	0.238349
	33.505000	0.083779
	33.510000	0.077202
	33.515000	0.228483
	33.520000	0.238349
	33.525000	0.083779
	33.530000	0.077202
	33.535000	0.231772
	33.540000	0.238349
	33.545000	0.083779
	33.550000	0.077202
	33.555000	0.231772
	33.560000	0.235060
	33.565000	0.080490
	33.570000	0.077202
	33.575000	0.225194
	33.580000	0.235060
	33.585000	0.080490
	33.590000	0.073913
	33.595000	0.235060
	33.600000	0.228483
	33.605000	0.080490
	33.610000	0.080490
	33.615000	0.231772
	33.620000	0.231772
	33.625000	0.080490
	33.630000	0.077202
	33.635000	0.225194
	33.640000	0.231772
	33.645000	0.077202
	33.650000	0.073913
	33.655000	0.231772
	33.660000	0.235060
	33.665000	0.083779
	33.670000	0.073913
	33.675000	0.228483
	33.680000	0.228483
	33.685000	0.080490
	33.690000	0.077202
	33.695000	0.231772
	33.700000	0.235060
	33.705000	0.077202
	33.710000	0.077202
	33.715000	0.235060
	33.720000	0.228483
	33.725000	0.077202
	33.730000	0.080490
	33.735000	0.231772
	33.740000	0.228483
	33.745000	0.077202
	33.750000	0.077202
	33.755000	0.231772
	33.760000	0.228483
	33.765000	0.077202
	33.770000	0.077202
	33.775000	0.228483
	33.780000	0.231772
	33.785000	0.073913
	33.790000	0.077202
	33.795000	0.228483
	33.800000	0.228483
	33.805000	0.077202
	33.810000	0.077202
	33.815000	0.228483
	33.820000	0.228483
	33.825000	0.073913
	33.830000	0.077202
	33.835000	0.231772
	33.840000	0.228483
	33.845000	0.073913
	33.850000	0.073913
	33.855000	0.231772
	33.860000	0.225194
	33.865000	0.077202
	33.870000	0.083779
	33.875000	0.235060
	33.880000	0.235060
	33.885000	0.087068
	33.890000	0.087068
	33.895000	0.244927
	33.900000	0.244927
	33.905000	0.090357
	33.910000	0.100223
	33.915000	0.258081
	33.920000	0.254793
	33.925000	0.106800
	33.930000	0.113378
	33.935000	0.271236
	33.940000	0.267948
	33.945000	0.123244
	33.950000	0.129821
	33.955000	0.281102
	33.960000	0.267948
	33.965000	0.123244
	33.970000	0.129821
	33.975000	0.287680
	33.980000	0.274525
	33.985000	0.119955
	33.990000	0.133110
	33.995000	0.281102
	34.000000	0.274525
	34.005000	0.123244
	34.010000	0.126533
	34.015000	0.281102
	34.020000	0.267948
	34.025000	0.119955
	34.030000	0.126533
	34.035000	0.281102
	34.040000	0.267948
	34.045000	0.113378
	34.050000	0.119955
	34.055000	0.277814
	34.060000	0.261370
	34.065000	0.106800
	34.070000	0.116666
	34.075000	0.267948
	34.080000	0.254793
	34.085000	0.106800
	34.090000	0.110089
	34.095000	0.261370
	34.100000	0.248215
	34.105000	0.093645
	34.110000	0.110089
	34.115000	0.258081
	34.120000	0.244927
	34.125000	0.090357
	34.130000	0.103511
	34.135000	0.251504
	34.140000	0.241638
	34.145000	0.093645
	34.150000	0.096934
	34.155000	0.251504
	34.160000	0.235060
	34.165000	0.087068
	34.170000	0.093645
	34.175000	0.248215
	34.180000	0.235060
	34.185000	0.077202
	34.190000	0.093645
	34.195000	0.241638
	34.200000	0.225194
	34.205000	0.080490
	34.210000	0.087068
	34.215000	0.238349
	34.220000	0.228483
	34.225000	0.077202
	34.230000	0.090357
	34.235000	0.241638
	34.240000	0.228483
	34.245000	0.083779
	34.250000	0.090357
	34.255000	0.241638
	34.260000	0.221905
	34.265000	0.083779
	34.270000	0.093645
	34.275000	0.251504
	34.280000	0.231772
	34.285000	0.090357
	34.290000	0.103511
	34.295000	0.248215
	34.300000	0.231772
	34.305000	0.093645
	34.310000	0.110089
	34.315000	0.254793
	34.320000	0.241638
	34.325000	0.103511
	34.330000	0.119955
	34.335000	0.254793
	34.340000	0.248215
	34.345000	0.110089
	34.350000	0.126533
	34.355000	0.264659
	34.360000	0.251504
	34.365000	0.106800
	34.370000	0.123244
	34.375000	0.261370
	34.380000	0.241638
	34.385000	0.103511
	34.390000	0.119955
	34.395000	0.254793
	34.400000	0.238349
	34.405000	0.096934
	34.410000	0.110089
	34.415000	0.244927
	34.420000	0.231772
	34.425000	0.087068
	34.430000	0.106800
	34.435000	0.235060
	34.440000	0.215328
	34.445000	0.080490
	34.450000	0.083779
	34.455000	0.212039
	34.460000	0.189018
	34.465000	0.050892
	34.470000	0.060758
	34.475000	0.182441
	34.480000	0.165997
	34.485000	0.024582
	34.490000	0.031160
	34.495000	0.149554
	34.500000	0.116666
	34.505000	-0.034615
	34.510000	-0.054347
	34.515000	0.050892
	34.520000	0.004850
	34.525000	-0.133277
	34.530000	-0.129988
	34.535000	-0.021460
	34.540000	-0.060925
	34.545000	-0.205628
	34.550000	-0.205628
	34.555000	-0.100389
	34.560000	-0.126699
	34.565000	-0.281269
	34.570000	-0.294424
	34.575000	-0.205628
	34.580000	-0.251671
	34.585000	-0.393086
	34.590000	-0.396374
	34.595000	-0.287847
	34.600000	-0.310868
	34.605000	-0.442417
	34.610000	-0.439128
	34.615000	-0.327311
	34.620000	-0.347044
	34.625000	-0.462149
	34.630000	-0.445705
	34.635000	-0.320734
	34.640000	-0.324023
	34.645000	-0.432550
	34.650000	-0.412818
	34.655000	-0.277980
	34.660000	-0.274692
	34.665000	-0.366776
	34.670000	-0.337177
	34.675000	-0.199051
	34.680000	-0.192474
	34.685000	-0.287847
	34.690000	-0.251671
	34.695000	-0.116833
	34.700000	-0.113544
	34.705000	-0.208917
	34.710000	-0.172741
	34.715000	-0.031326
	34.720000	-0.028037
	34.725000	-0.123410
	34.730000	-0.083946
	34.735000	0.057469
	34.740000	0.067335
	34.745000	-0.024749
	34.750000	0.018005
	34.755000	0.146265
	34.760000	0.146265
	34.765000	0.041026
	34.770000	0.067335
	34.775000	0.192307
	34.780000	0.182441
	34.785000	0.070624
	34.790000	0.096934
	34.795000	0.225194
	34.800000	0.208751
	34.805000	0.093645
	34.810000	0.116666
	34.815000	0.238349
	34.820000	0.225194
	34.825000	0.116666
	34.830000	0.149554
	34.835000	0.287680
	34.840000	0.281102
	34.845000	0.179152
	34.850000	0.221905
	34.855000	0.340299
	34.860000	0.323856
	34.865000	0.205462
	34.870000	0.221905
	34.875000	0.333722
	34.880000	0.294257
	34.885000	0.142976
	34.890000	0.146265
	34.895000	0.248215
	34.900000	0.202173
	34.905000	0.064047
	34.910000	0.073913
	34.915000	0.198884
	34.920000	0.156131
	34.925000	0.037737
	34.930000	0.057469
	34.935000	0.189018
	34.940000	0.169286
	34.945000	0.044314
	34.950000	0.080490
	34.955000	0.212039
	34.960000	0.185730
	34.965000	0.064047
	34.970000	0.096934
	34.975000	0.225194
	34.980000	0.205462
	34.985000	0.077202
	34.990000	0.113378
	34.995000	0.238349
	35.000000	0.215328
	35.005000	0.087068
	35.010000	0.123244
	35.015000	0.254793
	35.020000	0.225194
	35.025000	0.103511
	35.030000	0.146265
	35.035000	0.284391
	35.040000	0.254793
	35.045000	0.129821
	35.050000	0.169286
	35.055000	0.294257
	35.060000	0.261370
	35.065000	0.129821
	35.070000	0.169286
	35.075000	0.300835
	35.080000	0.267948
	35.085000	0.133110
	35.090000	0.169286
	35.095000	0.307412
	35.100000	0.277814
	35.105000	0.149554
	35.110000	0.192307
	35.115000	0.327145
	35.120000	0.294257
	35.125000	0.169286
	35.130000	0.208751
	35.135000	0.350166
	35.140000	0.313990
	35.145000	0.175863
	35.150000	0.218617
	35.155000	0.356743
	35.160000	0.310701
	35.165000	0.182441
	35.170000	0.215328
	35.175000	0.360032
	35.180000	0.320567
	35.185000	0.182441
	35.190000	0.225194
	35.195000	0.350166
	35.200000	0.310701
	35.205000	0.169286
	35.210000	0.212039
	35.215000	0.353454
	35.220000	0.304124
	35.225000	0.169286
	35.230000	0.212039
	35.235000	0.350166
	35.240000	0.297546
	35.245000	0.152842
	35.250000	0.198884
	35.255000	0.337011
	35.260000	0.284391
	35.265000	0.139687
	35.270000	0.185730
	35.275000	0.320567
	35.280000	0.267948
	35.285000	0.126533
	35.290000	0.172575
	35.295000	0.317278
	35.300000	0.267948
	35.305000	0.123244
	35.310000	0.169286
	35.315000	0.300835
	35.320000	0.248215
	35.325000	0.106800
	35.330000	0.156131
	35.335000	0.290969
	35.340000	0.241638
	35.345000	0.103511
	35.350000	0.149554
	35.355000	0.294257
	35.360000	0.244927
	35.365000	0.103511
	35.370000	0.156131
	35.375000	0.290969
	35.380000	0.241638
	35.385000	0.100223
	35.390000	0.156131
	35.395000	0.290969
	35.400000	0.238349
	35.405000	0.093645
	35.410000	0.146265
	35.415000	0.290969
	35.420000	0.235060
	35.425000	0.090357
	35.430000	0.142976
	35.435000	0.284391
	35.440000	0.228483
	35.445000	0.083779
	35.450000	0.136399
	35.455000	0.281102
	35.460000	0.221905
	35.465000	0.080490
	35.470000	0.136399
	35.475000	0.274525
	35.480000	0.221905
	35.485000	0.077202
	35.490000	0.126533
	35.495000	0.264659
	35.500000	0.208751
	35.505000	0.070624
	35.510000	0.126533
	35.515000	0.261370
	35.520000	0.205462
	35.525000	0.064047
	35.530000	0.119955
	35.535000	0.251504
	35.540000	0.195596
	35.545000	0.057469
	35.550000	0.110089
	35.555000	0.251504
	35.560000	0.192307
	35.565000	0.054181
	35.570000	0.110089
	35.575000	0.248215
	35.580000	0.198884
	35.585000	0.054181
	35.590000	0.113378
	35.595000	0.248215
	35.600000	0.189018
	35.605000	0.050892
	35.610000	0.113378
	35.615000	0.251504
	35.620000	0.189018
	35.625000	0.047603
	35.630000	0.116666
	35.635000	0.251504
	35.640000	0.195596
	35.645000	0.057469
	35.650000	0.116666
	35.655000	0.258081
	35.660000	0.195596
	35.665000	0.060758
	35.670000	0.123244
	35.675000	0.258081
	35.680000	0.195596
	35.685000	0.064047
	35.690000	0.119955
	35.695000	0.258081
	35.700000	0.198884
	35.705000	0.060758
	35.710000	0.119955
	35.715000	0.264659
	35.720000	0.195596
	35.725000	0.054181
	35.730000	0.123244
	35.735000	0.261370
	35.740000	0.195596
	35.745000	0.064047
	35.750000	0.126533
	35.755000	0.258081
	35.760000	0.195596
	35.765000	0.057469
	35.770000	0.126533
	35.775000	0.258081
	35.780000	0.192307
	35.785000	0.057469
	35.790000	0.123244
	35.795000	0.254793
	35.800000	0.195596
	35.805000	0.060758
	35.810000	0.123244
	35.815000	0.258081
	35.820000	0.189018
	35.825000	0.054181
	35.830000	0.123244
	35.835000	0.261370
	35.840000	0.195596
	35.845000	0.054181
	35.850000	0.123244
	35.855000	0.254793
	35.860000	0.189018
	35.865000	0.054181
	35.870000	0.123244
	35.875000	0.254793
	35.880000	0.189018
	35.885000	0.054181
	35.890000	0.123244
	35.895000	0.258081
	35.900000	0.185730
	35.905000	0.057469
	35.910000	0.119955
	35.915000	0.258081
	35.920000	0.185730
	35.925000	0.057469
	35.930000	0.119955
	35.935000	0.261370
	35.940000	0.189018
	35.945000	0.050892
	35.950000	0.123244
	35.955000	0.254793
	35.960000	0.189018
	35.965000	0.057469
	35.970000	0.123244
	35.975000	0.261370
	35.980000	0.195596
	35.985000	0.057469
	35.990000	0.129821
	35.995000	0.254793
	36.000000	0.185730
	36.005000	0.044314
	36.010000	0.119955
	36.015000	0.258081
	36.020000	0.185730
	36.025000	0.054181
	36.030000	0.123244
	36.035000	0.258081
	36.040000	0.182441
	36.045000	0.054181
	36.050000	0.126533
	36.055000	0.254793
	36.060000	0.185730
	36.065000	0.050892
	36.070000	0.126533
	36.075000	0.258081
	36.080000	0.182441
	36.085000	0.054181
	36.090000	0.129821
	36.095000	0.258081
	36.100000	0.189018
	36.105000	0.054181
	36.110000	0.133110
	36.115000	0.264659
	36.120000	0.192307
	36.125000	0.064047
	36.130000	0.136399
	36.135000	0.274525
	36.140000	0.195596
	36.145000	0.064047
	36.150000	0.142976
	36.155000	0.271236
	36.160000	0.202173
	36.165000	0.073913
	36.170000	0.149554
	36.175000	0.281102
	36.180000	0.205462
	36.185000	0.073913
	36.190000	0.152842
	36.195000	0.281102
	36.200000	0.208751
	36.205000	0.080490
	36.210000	0.149554
	36.215000	0.284391
	36.220000	0.208751
	36.225000	0.080490
	36.230000	0.156131
	36.235000	0.287680
	36.240000	0.212039
	36.245000	0.077202
	36.250000	0.156131
	36.255000	0.284391
	36.260000	0.205462
	36.265000	0.077202
	36.270000	0.159420
	36.275000	0.284391
	36.280000	0.205462
	36.285000	0.080490
	36.290000	0.162708
	36.295000	0.290969
	36.300000	0.208751
	36.305000	0.087068
	36.310000	0.169286
	36.315000	0.290969
	36.320000	0.212039
	36.325000	0.083779
	36.330000	0.162708
	36.335000	0.294257
	36.340000	0.212039
	36.345000	0.087068
	36.350000	0.165997
	36.355000	0.294257
	36.360000	0.208751
	36.365000	0.080490
	36.370000	0.162708
	36.375000	0.294257
	36.380000	0.208751
	36.385000	0.080490
	36.390000	0.162708
	36.395000	0.287680
	36.400000	0.205462
	36.405000	0.077202
	36.410000	0.162708
	36.415000	0.290969
	36.420000	0.205462
	36.425000	0.073913
	36.430000	0.169286
	36.435000	0.287680
	36.440000	0.198884
	36.445000	0.080490
	36.450000	0.159420
	36.455000	0.287680
	36.460000	0.198884
	36.465000	0.070624
	36.470000	0.159420
	36.475000	0.284391
	36.480000	0.198884
	36.485000	0.067335
	36.490000	0.152842
	36.495000	0.277814
	36.500000	0.195596
	36.505000	0.067335
	36.510000	0.159420
	36.515000	0.287680
	36.520000	0.189018
	36.525000	0.067335
	36.530000	0.152842
	36.535000	0.281102
	36.540000	0.189018
	36.545000	0.067335
	36.550000	0.152842
	36.555000	0.274525
	36.560000	0.185730
	36.565000	0.064047
	36.570000	0.149554
	36.575000	0.274525
	36.580000	0.185730
	36.585000	0.057469
	36.590000	0.146265
	36.595000	0.274525
	36.600000	0.185730
	36.605000	0.060758
	36.610000	0.149554
	36.615000	0.274525
	36.620000	0.185730
	36.625000	0.060758
	36.630000	0.149554
	36.635000	0.274525
	36.640000	0.179152
	36.645000	0.057469
	36.650000	0.152842
	36.655000	0.277814
	36.660000	0.182441
	36.665000	0.064047
	36.670000	0.152842
	36.675000	0.274525
	36.680000	0.185730
	36.685000	0.064047
	36.690000	0.156131
	36.695000	0.274525
	36.700000	0.185730
	36.705000	0.067335
	36.710000	0.156131
	36.715000	0.281102
	36.720000	0.189018
	36.725000	0.070624
	36.730000	0.165997
	36.735000	0.284391
	36.740000	0.192307
	36.745000	0.070624
	36.750000	0.169286
	36.755000	0.287680
	36.760000	0.195596
	36.765000	0.073913
	36.770000	0.165997
	36.775000	0.287680
	36.780000	0.192307
	36.785000	0.077202
	36.790000	0.172575
	36.795000	0.290969
	36.800000	0.195596
	36.805000	0.080490
	36.810000	0.172575
	36.815000	0.294257
	36.820000	0.198884
	36.825000	0.080490
	36.830000	0.179152
	36.835000	0.297546
	36.840000	0.208751
	36.845000	0.087068
	36.850000	0.192307
	36.855000	0.310701
	36.860000	0.221905
	36.865000	0.106800
	36.870000	0.208751
	36.875000	0.330433
	36.880000	0.238349
	36.885000	0.119955
	36.890000	0.221905
	36.895000	0.337011
	36.900000	0.235060
	36.905000	0.123244
	36.910000	0.215328
	36.915000	0.330433
	36.920000	0.235060
	36.925000	0.113378
	36.930000	0.218617
	36.935000	0.327145
	36.940000	0.228483
	36.945000	0.106800
	36.950000	0.208751
	36.955000	0.320567
	36.960000	0.218617
	36.965000	0.106800
	36.970000	0.198884
	36.975000	0.320567
	36.980000	0.215328
	36.985000	0.100223
	36.990000	0.195596
	36.995000	0.304124
	37.000000	0.205462
	37.005000	0.093645
	37.010000	0.189018
	37.015000	0.304124
	37.020000	0.208751
	37.025000	0.096934
	37.030000	0.192307
	37.035000	0.307412
	37.040000	0.208751
	37.045000	0.096934
	37.050000	0.192307
	37.055000	0.300835
	37.060000	0.205462
	37.065000	0.100223
	37.070000	0.189018
	37.075000	0.294257
	37.080000	0.205462
	37.085000	0.093645
	37.090000	0.185730
	37.095000	0.294257
	37.100000	0.202173
	37.105000	0.090357
	37.110000	0.182441
	37.115000	0.287680
	37.120000	0.202173
	37.125000	0.087068
	37.130000	0.179152
	37.135000	0.290969
	37.140000	0.192307
	37.145000	0.090357
	37.150000	0.185730
	37.155000	0.284391
	37.160000	0.192307
	37.165000	0.083779
	37.170000	0.169286
	37.175000	0.271236
	37.180000	0.175863
	37.185000	0.064047
	37.190000	0.152842
	37.195000	0.241638
	37.200000	0.136399
	37.205000	0.004850
	37.210000	0.057469
	37.215000	0.133110
	37.220000	0.027871
	37.225000	-0.097101
	37.230000	-0.041192
	37.235000	0.027871
	37.240000	-0.080657
	37.245000	-0.199051
	37.250000	-0.143143
	37.255000	-0.080657
	37.260000	-0.215495
	37.265000	-0.373353
	37.270000	-0.347044
	37.275000	-0.310868
	37.280000	-0.448994
	37.285000	-0.587120
	37.290000	-0.541078
	37.295000	-0.475304
	37.300000	-0.573965
	37.305000	-0.682493
	37.310000	-0.613430
	37.315000	-0.518057
	37.320000	-0.600275
	37.325000	-0.695648
	37.330000	-0.616719
	37.335000	-0.521346
	37.340000	-0.593698
	37.345000	-0.672627
	37.350000	-0.583832
	37.355000	-0.488459
	37.360000	-0.550944
	37.365000	-0.633162
	37.370000	-0.547656
	37.375000	-0.455571
	37.380000	-0.514768
	37.385000	-0.590409
	37.390000	-0.498325
	37.395000	-0.399663
	37.400000	-0.448994
	37.405000	-0.508191
	37.410000	-0.402952
	37.415000	-0.287847
	37.420000	-0.337177
	37.425000	-0.396374
	37.430000	-0.297713
	37.435000	-0.192474
	37.440000	-0.241804
	37.445000	-0.304290
	37.450000	-0.202340
	37.455000	-0.103678
	37.460000	-0.153009
	37.465000	-0.205628
	37.470000	-0.113544
	37.475000	-0.008305
	37.480000	-0.057636
	37.485000	-0.129988
	37.490000	-0.028037
	37.495000	0.070624
	37.500000	0.011427
	37.505000	-0.054347
	37.510000	0.041026
	37.515000	0.142976
	37.520000	0.087068
	37.525000	0.027871
	37.530000	0.123244
	37.535000	0.231772
	37.540000	0.172575
	37.545000	0.110089
	37.550000	0.212039
	37.555000	0.317278
	37.560000	0.254793
	37.565000	0.179152
	37.570000	0.274525
	37.575000	0.363321
	37.580000	0.294257
	37.585000	0.212039
	37.590000	0.290969
	37.595000	0.379764
	37.600000	0.300835
	37.605000	0.215328
	37.610000	0.304124
	37.615000	0.386342
	37.620000	0.307412
	37.625000	0.221905
	37.630000	0.317278
	37.635000	0.402785
	37.640000	0.323856
	37.645000	0.241638
	37.650000	0.337011
	37.655000	0.422518
	37.660000	0.310701
	37.665000	0.215328
	37.670000	0.300835
	37.675000	0.392919
	37.680000	0.287680
	37.685000	0.182441
	37.690000	0.267948
	37.695000	0.360032
	37.700000	0.254793
	37.705000	0.149554
	37.710000	0.231772
	37.715000	0.310701
	37.720000	0.208751
	37.725000	0.116666
	37.730000	0.198884
	37.735000	0.277814
	37.740000	0.169286
	37.745000	0.070624
	37.750000	0.165997
	37.755000	0.248215
	37.760000	0.149554
	37.765000	0.057469
	37.770000	0.162708
	37.775000	0.251504
	37.780000	0.146265
	37.785000	0.047603
	37.790000	0.142976
	37.795000	0.221905
	37.800000	0.116666
	37.805000	0.031160
	37.810000	0.126533
	37.815000	0.212039
	37.820000	0.113378
	37.825000	0.037737
	37.830000	0.142976
	37.835000	0.228483
	37.840000	0.139687
	37.845000	0.064047
	37.850000	0.179152
	37.855000	0.277814
	37.860000	0.185730
	37.865000	0.110089
	37.870000	0.221905
	37.875000	0.320567
	37.880000	0.218617
	37.885000	0.136399
	37.890000	0.248215
	37.895000	0.337011
	37.900000	0.231772
	37.905000	0.149554
	37.910000	0.254793
	37.915000	0.340299
	37.920000	0.235060
	37.925000	0.152842
	37.930000	0.264659
	37.935000	0.343588
	37.940000	0.248215
	37.945000	0.162708
	37.950000	0.281102
	37.955000	0.363321
	37.960000	0.261370
	37.965000	0.175863
	37.970000	0.287680
	37.975000	0.379764
	37.980000	0.261370
	37.985000	0.169286
	37.990000	0.284391
	37.995000	0.363321
	38.000000	0.241638
	38.005000	0.149554
	38.010000	0.258081
	38.015000	0.340299
	38.020000	0.221905
	38.025000	0.133110
	38.030000	0.241638
	38.035000	0.323856
	38.040000	0.202173
	38.045000	0.119955
	38.050000	0.235060
	38.055000	0.317278
	38.060000	0.198884
	38.065000	0.110089
	38.070000	0.228483
	38.075000	0.310701
	38.080000	0.192307
	38.085000	0.110089
	38.090000	0.228483
	38.095000	0.304124
	38.100000	0.189018
	38.105000	0.100223
	38.110000	0.218617
	38.115000	0.307412
	38.120000	0.189018
	38.125000	0.103511
	38.130000	0.218617
	38.135000	0.304124
	38.140000	0.189018
	38.145000	0.100223
	38.150000	0.221905
	38.155000	0.307412
	38.160000	0.185730
	38.165000	0.103511
	38.170000	0.225194
	38.175000	0.310701
	38.180000	0.185730
	38.185000	0.106800
	38.190000	0.231772
	38.195000	0.313990
	38.200000	0.185730
	38.205000	0.103511
	38.210000	0.225194
	38.215000	0.310701
	38.220000	0.185730
	38.225000	0.103511
	38.230000	0.231772
	38.235000	0.310701
	38.240000	0.189018
	38.245000	0.100223
	38.250000	0.221905
	38.255000	0.304124
	38.260000	0.179152
	38.265000	0.090357
	38.270000	0.218617
	38.275000	0.300835
	38.280000	0.175863
	38.285000	0.090357
	38.290000	0.215328
	38.295000	0.304124
	38.300000	0.172575
	38.305000	0.093645
	38.310000	0.221905
	38.315000	0.300835
	38.320000	0.172575
	38.325000	0.093645
	38.330000	0.221905
	38.335000	0.297546
	38.340000	0.165997
	38.345000	0.087068
	38.350000	0.221905
	38.355000	0.297546
	38.360000	0.162708
	38.365000	0.087068
	38.370000	0.215328
	38.375000	0.290969
	38.380000	0.156131
	38.385000	0.080490
	38.390000	0.208751
	38.395000	0.290969
	38.400000	0.159420
	38.405000	0.080490
	38.410000	0.208751
	38.415000	0.287680
	38.420000	0.156131
	38.425000	0.077202
	38.430000	0.208751
	38.435000	0.287680
	38.440000	0.156131
	38.445000	0.080490
	38.450000	0.208751
	38.455000	0.284391
	38.460000	0.152842
	38.465000	0.080490
	38.470000	0.202173
	38.475000	0.277814
	38.480000	0.146265
	38.485000	0.064047
	38.490000	0.192307
	38.495000	0.267948
	38.500000	0.133110
	38.505000	0.057469
	38.510000	0.195596
	38.515000	0.274525
	38.520000	0.136399
	38.525000	0.064047
	38.530000	0.192307
	38.535000	0.264659
	38.540000	0.133110
	38.545000	0.060758
	38.550000	0.189018
	38.555000	0.267948
	38.560000	0.133110
	38.565000	0.057469
	38.570000	0.189018
	38.575000	0.258081
	38.580000	0.129821
	38.585000	0.054181
	38.590000	0.189018
	38.595000	0.258081
	38.600000	0.126533
	38.605000	0.054181
	38.610000	0.185730
	38.615000	0.254793
	38.620000	0.123244
	38.625000	0.047603
	38.630000	0.185730
	38.635000	0.258081
	38.640000	0.123244
	38.645000	0.054181
	38.650000	0.182441
	38.655000	0.254793
	38.660000	0.119955
	38.665000	0.054181
	38.670000	0.185730
	38.675000	0.251504
	38.680000	0.123244
	38.685000	0.050892
	38.690000	0.185730
	38.695000	0.258081
	38.700000	0.123244
	38.705000	0.050892
	38.710000	0.189018
	38.715000	0.258081
	38.720000	0.119955
	38.725000	0.054181
	38.730000	0.192307
	38.735000	0.258081
	38.740000	0.123244
	38.745000	0.060758
	38.750000	0.195596
	38.755000	0.261370
	38.760000	0.129821
	38.765000	0.057469
	38.770000	0.198884
	38.775000	0.261370
	38.780000	0.126533
	38.785000	0.060758
	38.790000	0.202173
	38.795000	0.261370
	38.800000	0.129821
	38.805000	0.064047
	38.810000	0.198884
	38.815000	0.264659
	38.820000	0.129821
	38.825000	0.064047
	38.830000	0.198884
	38.835000	0.264659
	38.840000	0.126533
	38.845000	0.067335
	38.850000	0.202173
	38.855000	0.267948
	38.860000	0.133110
	38.865000	0.070624
	38.870000	0.205462
	38.875000	0.271236
	38.880000	0.133110
	38.885000	0.077202
	38.890000	0.208751
	38.895000	0.271236
	38.900000	0.139687
	38.905000	0.077202
	38.910000	0.212039
	38.915000	0.267948
	38.920000	0.136399
	38.925000	0.073913
	38.930000	0.205462
	38.935000	0.271236
	38.940000	0.129821
	38.945000	0.064047
	38.950000	0.205462
	38.955000	0.267948
	38.960000	0.129821
	38.965000	0.073913
	38.970000	0.208751
	38.975000	0.277814
	38.980000	0.133110
	38.985000	0.073913
	38.990000	0.215328
	38.995000	0.277814
	39.000000	0.142976
	39.005000	0.077202
	39.010000	0.215328
	39.015000	0.271236
	39.020000	0.133110
	39.025000	0.073913
	39.030000	0.215328
	39.035000	0.277814
	39.040000	0.136399
	39.045000	0.077202
	39.050000	0.215328
	39.055000	0.277814
	39.060000	0.133110
	39.065000	0.080490
	39.070000	0.225194
	39.075000	0.274525
	39.080000	0.139687
	39.085000	0.083779
	39.090000	0.221905
	39.095000	0.281102
	39.100000	0.139687
	39.105000	0.083779
	39.110000	0.225194
	39.115000	0.284391
	39.120000	0.142976
	39.125000	0.087068
	39.130000	0.221905
	39.135000	0.287680
	39.140000	0.139687
	39.145000	0.090357
	39.150000	0.228483
	39.155000	0.290969
	39.160000	0.149554
	39.165000	0.093645
	39.170000	0.235060
	39.175000	0.294257
	39.180000	0.159420
	39.185000	0.106800
	39.190000	0.244927
	39.195000	0.304124
	39.200000	0.162708
	39.205000	0.110089
	39.210000	0.258081
	39.215000	0.313990
	39.220000	0.179152
	39.225000	0.126533
	39.230000	0.274525
	39.235000	0.330433
	39.240000	0.198884
	39.245000	0.152842
	39.250000	0.304124
	39.255000	0.356743
	39.260000	0.218617
	39.265000	0.179152
	39.270000	0.327145
	39.275000	0.386342
	39.280000	0.235060
	39.285000	0.192307
	39.290000	0.337011
	39.295000	0.386342
	39.300000	0.241638
	39.305000	0.192307
	39.310000	0.330433
	39.315000	0.389630
	39.320000	0.241638
	39.325000	0.192307
	39.330000	0.337011
	39.335000	0.389630
	39.340000	0.238349
	39.345000	0.189018
	39.350000	0.333722
	39.355000	0.379764
	39.360000	0.231772
	39.365000	0.185730
	39.370000	0.323856
	39.375000	0.373187
	39.380000	0.228483
	39.385000	0.175863
	39.390000	0.317278
	39.395000	0.366609
	39.400000	0.221905
	39.405000	0.169286
	39.410000	0.310701
	39.415000	0.366609
	39.420000	0.212039
	39.425000	0.165997
	39.430000	0.310701
	39.435000	0.356743
	39.440000	0.205462
	39.445000	0.159420
	39.450000	0.304124
	39.455000	0.346877
	39.460000	0.198884
	39.465000	0.146265
	39.470000	0.294257
	39.475000	0.337011
	39.480000	0.195596
	39.485000	0.142976
	39.490000	0.287680
	39.495000	0.330433
	39.500000	0.182441
	39.505000	0.139687
	39.510000	0.284391
	39.515000	0.323856
	39.520000	0.175863
	39.525000	0.126533
	39.530000	0.274525
	39.535000	0.317278
	39.540000	0.165997
	39.545000	0.123244
	39.550000	0.267948
	39.555000	0.310701
	39.560000	0.162708
	39.565000	0.119955
	39.570000	0.267948
	39.575000	0.310701
	39.580000	0.159420
	39.585000	0.116666
	39.590000	0.261370
	39.595000	0.300835
	39.600000	0.156131
	39.605000	0.113378
	39.610000	0.261370
	39.615000	0.304124
	39.620000	0.152842
	39.625000	0.119955
	39.630000	0.261370
	39.635000	0.304124
	39.640000	0.159420
	39.645000	0.116666
	39.650000	0.258081
	39.655000	0.304124
	39.660000	0.162708
	39.665000	0.123244
	39.670000	0.267948
	39.675000	0.304124
	39.680000	0.165997
	39.685000	0.123244
	39.690000	0.264659
	39.695000	0.304124
	39.700000	0.169286
	39.705000	0.119955
	39.710000	0.261370
	39.715000	0.304124
	39.720000	0.165997
	39.725000	0.126533
	39.730000	0.264659
	39.735000	0.304124
	39.740000	0.162708
	39.745000	0.123244
	39.750000	0.258081
	39.755000	0.300835
	39.760000	0.162708
	39.765000	0.123244
	39.770000	0.254793
	39.775000	0.287680
	39.780000	0.149554
	39.785000	0.113378
	39.790000	0.244927
	39.795000	0.274525
	39.800000	0.129821
	39.805000	0.087068
	39.810000	0.208751
	39.815000	0.231772
	39.820000	0.077202
	39.825000	0.001561
	39.830000	0.080490
	39.835000	0.080490
	39.840000	-0.083946
	39.845000	-0.156298
	39.850000	-0.057636
	39.855000	-0.054347
	39.860000	-0.212206
	39.865000	-0.284558
	39.870000	-0.192474
	39.875000	-0.189185
	39.880000	-0.337177
	39.885000	-0.396374
	39.890000	-0.297713
	39.895000	-0.274692
	39.900000	-0.425973
	39.905000	-0.478592
	39.910000	-0.366776
	39.915000	-0.333889
	39.920000	-0.448994
	39.925000	-0.475304
	39.930000	-0.356910
	39.935000	-0.327311
	39.940000	-0.452283
	39.945000	-0.488459
	39.950000	-0.376642
	39.955000	-0.337177
	39.960000	-0.445705
	39.965000	-0.478592
	39.970000	-0.363487
	39.975000	-0.317445
	39.980000	-0.425973
	39.985000	-0.445705
	39.990000	-0.320734
	39.995000	-0.277980
	40.000000	-0.376642
	40.005000	-0.393086
	40.010000	-0.258248
	40.015000	-0.212206
	40.020000	-0.301001
	40.025000	-0.307579
	40.030000	-0.176030
	40.035000	-0.120122
	40.040000	-0.212206
	40.045000	-0.222072
	40.050000	-0.087234
	40.055000	-0.031326
	40.060000	-0.120122
	40.065000	-0.120122
	40.070000	0.008138
	40.075000	0.060758
	40.080000	-0.028037
	40.085000	-0.034615
	40.090000	0.103511
	40.095000	0.156131
	40.100000	0.067335
	40.105000	0.067335
	40.110000	0.205462
	40.115000	0.261370
	40.120000	0.165997
	40.125000	0.156131
	40.130000	0.290969
	40.135000	0.323856
	40.140000	0.221905
	40.145000	0.198884
	40.150000	0.320567
	40.155000	0.350166
	40.160000	0.235060
	40.165000	0.215328
	40.170000	0.330433
	40.175000	0.356743
	40.180000	0.238349
	40.185000	0.212039
	40.190000	0.337011
	40.195000	0.373187
	40.200000	0.254793
	40.205000	0.238349
	40.210000	0.369898
	40.215000	0.406074
	40.220000	0.284391
	40.225000	0.244927
	40.230000	0.363321
	40.235000	0.373187
	40.240000	0.228483
	40.245000	0.182441
	40.250000	0.294257
	40.255000	0.297546
	40.260000	0.156131
	40.265000	0.126533
	40.270000	0.244927
	40.275000	0.261370
	40.280000	0.119955
	40.285000	0.096934
	40.290000	0.215328
	40.295000	0.228483
	40.300000	0.090357
	40.305000	0.057469
	40.310000	0.185730
	40.315000	0.208751
	40.320000	0.067335
	40.325000	0.047603
	40.330000	0.175863
	40.335000	0.195596
	40.340000	0.064047
	40.345000	0.047603
	40.350000	0.182441
	40.355000	0.208751
	40.360000	0.077202
	40.365000	0.064047
	40.370000	0.192307
	40.375000	0.215328
	40.380000	0.090357
	40.385000	0.070624
	40.390000	0.205462
	40.395000	0.228483
	40.400000	0.103511
	40.405000	0.090357
	40.410000	0.235060
	40.415000	0.258081
	40.420000	0.136399
	40.425000	0.136399
	40.430000	0.271236
	40.435000	0.297546
	40.440000	0.162708
	40.445000	0.156131
	40.450000	0.290969
	40.455000	0.317278
	40.460000	0.182441
	40.465000	0.169286
	40.470000	0.310701
	40.475000	0.320567
	40.480000	0.189018
	40.485000	0.175863
	40.490000	0.320567
	40.495000	0.333722
	40.500000	0.192307
	40.505000	0.175863
	40.510000	0.310701
	40.515000	0.323856
	40.520000	0.175863
	40.525000	0.162708
	40.530000	0.300835
	40.535000	0.310701
	40.540000	0.162708
	40.545000	0.149554
	40.550000	0.290969
	40.555000	0.300835
	40.560000	0.162708
	40.565000	0.142976
	40.570000	0.284391
	40.575000	0.290969
	40.580000	0.139687
	40.585000	0.129821
	40.590000	0.267948
	40.595000	0.274525
	40.600000	0.123244
	40.605000	0.113378
	40.610000	0.261370
	40.615000	0.264659
	40.620000	0.116666
	40.625000	0.106800
	40.630000	0.251504
	40.635000	0.261370
	40.640000	0.116666
	40.645000	0.103511
	40.650000	0.254793
	40.655000	0.267948
	40.660000	0.126533
	40.665000	0.116666
	40.670000	0.258081
	40.675000	0.267948
	40.680000	0.116666
	40.685000	0.106800
	40.690000	0.254793
	40.695000	0.261370
	40.700000	0.110089
	40.705000	0.110089
	40.710000	0.254793
	40.715000	0.264659
	40.720000	0.116666
	40.725000	0.113378
	40.730000	0.261370
	40.735000	0.267948
	40.740000	0.119955
	40.745000	0.116666
	40.750000	0.264659
	40.755000	0.271236
	40.760000	0.119955
	40.765000	0.126533
	40.770000	0.274525
	40.775000	0.267948
	40.780000	0.123244
	40.785000	0.123244
	40.790000	0.271236
	40.795000	0.277814
	40.800000	0.126533
	40.805000	0.126533
	40.810000	0.277814
	40.815000	0.277814
	40.820000	0.129821
	40.825000	0.126533
	40.830000	0.277814
	40.835000	0.277814
	40.840000	0.133110
	40.845000	0.133110
	40.850000	0.287680
	40.855000	0.284391
	40.860000	0.136399
	40.865000	0.133110
	40.870000	0.281102
	40.875000	0.281102
	40.880000	0.126533
	40.885000	0.129821
	40.890000	0.277814
	40.895000	0.274525
	40.900000	0.123244
	40.905000	0.129821
	40.910000	0.277814
	40.915000	0.277814
	40.920000	0.126533
	40.925000	0.126533
	40.930000	0.277814
	40.935000	0.274525
	40.940000	0.119955
	40.945000	0.126533
	40.950000	0.277814
	40.955000	0.267948
	40.960000	0.119955
	40.965000	0.123244
	40.970000	0.274525
	40.975000	0.267948
	40.980000	0.116666
	40.985000	0.123244
	40.990000	0.271236
	40.995000	0.261370
	41.000000	0.110089
	41.005000	0.110089
	41.010000	0.261370
	41.015000	0.254793
	41.020000	0.100223
	41.025000	0.100223
	41.030000	0.251504
	41.035000	0.244927
	41.040000	0.093645
	41.045000	0.093645
	41.050000	0.248215
	41.055000	0.238349
	41.060000	0.093645
	41.065000	0.096934
	41.070000	0.251504
	41.075000	0.235060
	41.080000	0.087068
	41.085000	0.096934
	41.090000	0.244927
	41.095000	0.238349
	41.100000	0.083779
	41.105000	0.093645
	41.110000	0.241638
	41.115000	0.235060
	41.120000	0.080490
	41.125000	0.093645
	41.130000	0.241638
	41.135000	0.231772
	41.140000	0.083779
	41.145000	0.096934
	41.150000	0.244927
	41.155000	0.235060
	41.160000	0.083779
	41.165000	0.090357
	41.170000	0.241638
	41.175000	0.235060
	41.180000	0.083779
	41.185000	0.093645
	41.190000	0.248215
	41.195000	0.238349
	41.200000	0.087068
	41.205000	0.100223
	41.210000	0.251504
	41.215000	0.235060
	41.220000	0.083779
	41.225000	0.103511
	41.230000	0.254793
	41.235000	0.241638
	41.240000	0.090357
	41.245000	0.100223
	41.250000	0.251504
	41.255000	0.238349
	41.260000	0.090357
	41.265000	0.103511
	41.270000	0.251504
	41.275000	0.238349
	41.280000	0.090357
	41.285000	0.103511
	41.290000	0.254793
	41.295000	0.241638
	41.300000	0.093645
	41.305000	0.106800
	41.310000	0.258081
	41.315000	0.244927
	41.320000	0.096934
	41.325000	0.113378
	41.330000	0.264659
	41.335000	0.248215
	41.340000	0.096934
	41.345000	0.119955
	41.350000	0.264659
	41.355000	0.251504
	41.360000	0.103511
	41.365000	0.119955
	41.370000	0.267948
	41.375000	0.248215
	41.380000	0.100223
	41.385000	0.116666
	41.390000	0.261370
	41.395000	0.248215
	41.400000	0.100223
	41.405000	0.119955
	41.410000	0.267948
	41.415000	0.251504
	41.420000	0.093645
	41.425000	0.116666
	41.430000	0.261370
	41.435000	0.244927
	41.440000	0.100223
	41.445000	0.116666
	41.450000	0.267948
	41.455000	0.251504
	41.460000	0.100223
	41.465000	0.119955
	41.470000	0.271236
	41.475000	0.251504
	41.480000	0.106800
	41.485000	0.123244
	41.490000	0.274525
	41.495000	0.248215
	41.500000	0.100223
	41.505000	0.126533
	41.510000	0.274525
	41.515000	0.254793
	41.520000	0.103511
	41.525000	0.126533
	41.530000	0.274525
	41.535000	0.251504
	41.540000	0.103511
	41.545000	0.126533
	41.550000	0.277814
	41.555000	0.254793
	41.560000	0.106800
	41.565000	0.136399
	41.570000	0.284391
	41.575000	0.258081
	41.580000	0.113378
	41.585000	0.142976
	41.590000	0.284391
	41.595000	0.254793
	41.600000	0.110089
	41.605000	0.136399
	41.610000	0.284391
	41.615000	0.258081
	41.620000	0.110089
	41.625000	0.139687
	41.630000	0.287680
	41.635000	0.258081
	41.640000	0.113378
	41.645000	0.136399
	41.650000	0.287680
	41.655000	0.258081
	41.660000	0.110089
	41.665000	0.136399
	41.670000	0.284391
	41.675000	0.254793
	41.680000	0.113378
	41.685000	0.133110
	41.690000	0.277814
	41.695000	0.254793
	41.700000	0.103511
	41.705000	0.136399
	41.710000	0.277814
	41.715000	0.248215
	41.720000	0.100223
	41.725000	0.129821
	41.730000	0.274525
	41.735000	0.241638
	41.740000	0.093645
	41.745000	0.116666
	41.750000	0.261370
	41.755000	0.235060
	41.760000	0.080490
	41.765000	0.110089
	41.770000	0.254793
	41.775000	0.225194
	41.780000	0.077202
	41.785000	0.113378
	41.790000	0.254793
	41.795000	0.221905
	41.800000	0.077202
	41.805000	0.103511
	41.810000	0.258081
	41.815000	0.221905
	41.820000	0.073913
	41.825000	0.103511
	41.830000	0.254793
	41.835000	0.221905
	41.840000	0.073913
	41.845000	0.100223
	41.850000	0.248215
	41.855000	0.212039
	41.860000	0.067335
	41.865000	0.103511
	41.870000	0.248215
	41.875000	0.212039
	41.880000	0.064047
	41.885000	0.100223
	41.890000	0.244927
	41.895000	0.202173
	41.900000	0.057469
	41.905000	0.090357
	41.910000	0.238349
	41.915000	0.205462
	41.920000	0.057469
	41.925000	0.093645
	41.930000	0.241638
	41.935000	0.208751
	41.940000	0.064047
	41.945000	0.093645
	41.950000	0.241638
	41.955000	0.205462
	41.960000	0.060758
	41.965000	0.096934
	41.970000	0.241638
	41.975000	0.205462
	41.980000	0.060758
	41.985000	0.100223
	41.990000	0.241638
	41.995000	0.205462
	42.000000	0.054181
	42.005000	0.093645
	42.010000	0.241638
	42.015000	0.202173
	42.020000	0.057469
	42.025000	0.100223
	42.030000	0.241638
	42.035000	0.202173
	42.040000	0.060758
	42.045000	0.100223
	42.050000	0.244927
	42.055000	0.205462
	42.060000	0.064047
	42.065000	0.100223
	42.070000	0.248215
	42.075000	0.208751
	42.080000	0.064047
	42.085000	0.100223
	42.090000	0.251504
	42.095000	0.212039
	42.100000	0.064047
	42.105000	0.106800
	42.110000	0.251504
	42.115000	0.212039
	42.120000	0.064047
	42.125000	0.106800
	42.130000	0.254793
	42.135000	0.212039
	42.140000	0.070624
	42.145000	0.116666
	42.150000	0.264659
	42.155000	0.221905
	42.160000	0.083779
	42.165000	0.129821
	42.170000	0.277814
	42.175000	0.244927
	42.180000	0.106800
	42.185000	0.156131
	42.190000	0.307412
	42.195000	0.274525
	42.200000	0.136399
	42.205000	0.195596
	42.210000	0.353454
	42.215000	0.323856
	42.220000	0.195596
	42.225000	0.251504
	42.230000	0.406074
	42.235000	0.369898
	42.240000	0.228483
	42.245000	0.281102
	42.250000	0.422518
	42.255000	0.383053
	42.260000	0.235060
	42.265000	0.277814
	42.270000	0.415940
	42.275000	0.369898
	42.280000	0.221905
	42.285000	0.267948
	42.290000	0.406074
	42.295000	0.353454
	42.300000	0.205462
	42.305000	0.244927
	42.310000	0.386342
	42.315000	0.337011
	42.320000	0.189018
	42.325000	0.228483
	42.330000	0.366609
	42.335000	0.317278
	42.340000	0.165997
	42.345000	0.208751
	42.350000	0.346877
	42.355000	0.294257
	42.360000	0.146265
	42.365000	0.192307
	42.370000	0.330433
	42.375000	0.277814
	42.380000	0.133110
	42.385000	0.175863
	42.390000	0.313990
	42.395000	0.261370
	42.400000	0.116666
	42.405000	0.162708
	42.410000	0.294257
	42.415000	0.241638
	42.420000	0.103511
	42.425000	0.146265
	42.430000	0.277814
	42.435000	0.235060
	42.440000	0.096934
	42.445000	0.146265
	42.450000	0.281102
	42.455000	0.231772
	42.460000	0.096934
	42.465000	0.142976
	42.470000	0.281102
	42.475000	0.228483
	42.480000	0.096934
	42.485000	0.139687
	42.490000	0.267948
	42.495000	0.225194
	42.500000	0.090357
	42.505000	0.133110
	42.510000	0.261370
	42.515000	0.202173
	42.520000	0.060758
	42.525000	0.087068
	42.530000	0.192307
	42.535000	0.123244
	42.540000	-0.024749
	42.545000	-0.005016
	42.550000	0.096934
	42.555000	0.034448
	42.560000	-0.110256
	42.565000	-0.083946
	42.570000	0.011427
	42.575000	-0.064213
	42.580000	-0.222072
	42.585000	-0.218783
	42.590000	-0.126699
	42.595000	-0.208917
	42.600000	-0.350332
	42.605000	-0.324023
	42.610000	-0.208917
	42.615000	-0.264826
	42.620000	-0.389797
	42.625000	-0.350332
	42.630000	-0.231938
	42.635000	-0.277980
	42.640000	-0.399663
	42.645000	-0.376642
	42.650000	-0.274692
	42.655000	-0.330600
	42.660000	-0.468726
	42.665000	-0.439128
	42.670000	-0.327311
	42.675000	-0.376642
	42.680000	-0.498325
	42.685000	-0.458860
	42.690000	-0.340466
	42.695000	-0.376642
	42.700000	-0.491747
	42.705000	-0.448994
	42.710000	-0.333889
	42.715000	-0.360198
	42.720000	-0.455571
	42.725000	-0.393086
	42.730000	-0.264826
	42.735000	-0.277980
	42.740000	-0.370065
	42.745000	-0.297713
	42.750000	-0.172741
	42.755000	-0.189185
	42.760000	-0.268114
	42.765000	-0.202340
	42.770000	-0.067502
	42.775000	-0.083946
	42.780000	-0.159586
	42.785000	-0.097101
	42.790000	0.041026
	42.795000	0.024582
	42.800000	-0.064213
	42.805000	0.004850
	42.810000	0.146265
	42.815000	0.129821
	42.820000	0.057469
	42.825000	0.126533
	42.830000	0.261370
	42.835000	0.258081
	42.840000	0.169286
	42.845000	0.238349
	42.850000	0.369898
	42.855000	0.343588
	42.860000	0.238349
	42.865000	0.294257
	42.870000	0.409363
	42.875000	0.376475
	42.880000	0.274525
	42.885000	0.327145
	42.890000	0.438961
	42.895000	0.379764
	42.900000	0.251504
	42.905000	0.287680
	42.910000	0.389630
	42.915000	0.323856
	42.920000	0.198884
	42.925000	0.228483
	42.930000	0.330433
	42.935000	0.267948
	42.940000	0.136399
	42.945000	0.169286
	42.950000	0.274525
	42.955000	0.212039
	42.960000	0.087068
	42.965000	0.123244
	42.970000	0.231772
	42.975000	0.175863
	42.980000	0.060758
	42.985000	0.106800
	42.990000	0.221905
	42.995000	0.165997
	43.000000	0.054181
	43.005000	0.103511
	43.010000	0.215328
	43.015000	0.162708
	43.020000	0.050892
	43.025000	0.106800
	43.030000	0.218617
	43.035000	0.175863
	43.040000	0.067335
	43.045000	0.113378
	43.050000	0.238349
	43.055000	0.185730
	43.060000	0.073913
	43.065000	0.139687
	43.070000	0.254793
	43.075000	0.208751
	43.080000	0.100223
	43.085000	0.156131
	43.090000	0.281102
	43.095000	0.228483
	43.100000	0.123244
	43.105000	0.185730
	43.110000	0.307412
	43.115000	0.251504
	43.120000	0.139687
	43.125000	0.205462
	43.130000	0.320567
	43.135000	0.261370
	43.140000	0.142976
	43.145000	0.205462
	43.150000	0.320567
	43.155000	0.261370
	43.160000	0.139687
	43.165000	0.202173
	43.170000	0.313990
	43.175000	0.248215
	43.180000	0.133110
	43.185000	0.189018
	43.190000	0.310701
	43.195000	0.241638
	43.200000	0.123244
	43.205000	0.185730
	43.210000	0.304124
	43.215000	0.238349
	43.220000	0.116666
	43.225000	0.182441
	43.230000	0.297546
	43.235000	0.231772
	43.240000	0.110089
	43.245000	0.179152
	43.250000	0.297546
	43.255000	0.228483
	43.260000	0.103511
	43.265000	0.169286
	43.270000	0.290969
	43.275000	0.218617
	43.280000	0.096934
	43.285000	0.169286
	43.290000	0.290969
	43.295000	0.221905
	43.300000	0.103511
	43.305000	0.179152
	43.310000	0.300835
	43.315000	0.235060
	43.320000	0.116666
	43.325000	0.182441
	43.330000	0.300835
	43.335000	0.228483
	43.340000	0.100223
	43.345000	0.175863
	43.350000	0.297546
	43.355000	0.221905
	43.360000	0.100223
	43.365000	0.172575
	43.370000	0.294257
	43.375000	0.221905
	43.380000	0.100223
	43.385000	0.175863
	43.390000	0.297546
	43.395000	0.221905
	43.400000	0.096934
	43.405000	0.169286
	43.410000	0.294257
	43.415000	0.215328
	43.420000	0.087068
	43.425000	0.159420
	43.430000	0.284391
	43.435000	0.205462
	43.440000	0.080490
	43.445000	0.152842
	43.450000	0.274525
	43.455000	0.198884
	43.460000	0.077202
	43.465000	0.152842
	43.470000	0.274525
	43.475000	0.189018
	43.480000	0.070624
	43.485000	0.149554
	43.490000	0.274525
	43.495000	0.192307
	43.500000	0.067335
	43.505000	0.152842
	43.510000	0.274525
	43.515000	0.192307
	43.520000	0.067335
	43.525000	0.146265
	43.530000	0.267948
	43.535000	0.189018
	43.540000	0.064047
	43.545000	0.146265
	43.550000	0.267948
	43.555000	0.185730
	43.560000	0.064047
	43.565000	0.139687
	43.570000	0.267948
	43.575000	0.182441
	43.580000	0.060758
	43.585000	0.146265
	43.590000	0.264659
	43.595000	0.185730
	43.600000	0.067335
	43.605000	0.152842
	43.610000	0.281102
	43.615000	0.195596
	43.620000	0.077202
	43.625000	0.159420
	43.630000	0.287680
	43.635000	0.198884
	43.640000	0.077202
	43.645000	0.169286
	43.650000	0.284391
	43.655000	0.205462
	43.660000	0.080490
	43.665000	0.165997
	43.670000	0.284391
	43.675000	0.195596
	43.680000	0.080490
	43.685000	0.169286
	43.690000	0.284391
	43.695000	0.195596
	43.700000	0.080490
	43.705000	0.169286
	43.710000	0.287680
	43.715000	0.198884
	43.720000	0.083779
	43.725000	0.169286
	43.730000	0.290969
	43.735000	0.202173
	43.740000	0.080490
	43.745000	0.169286
	43.750000	0.284391
	43.755000	0.198884
	43.760000	0.077202
	43.765000	0.162708
	43.770000	0.287680
	43.775000	0.192307
	43.780000	0.073913
	43.785000	0.159420
	43.790000	0.277814
	43.795000	0.182441
	43.800000	0.067335
	43.805000	0.159420
	43.810000	0.274525
	43.815000	0.189018
	43.820000	0.064047
	43.825000	0.156131
	43.830000	0.274525
	43.835000	0.185730
	43.840000	0.067335
	43.845000	0.152842
	43.850000	0.271236
	43.855000	0.182441
	43.860000	0.067335
	43.865000	0.159420
	43.870000	0.274525
	43.875000	0.182441
	43.880000	0.067335
	43.885000	0.159420
	43.890000	0.277814
	43.895000	0.185730
	43.900000	0.070624
	43.905000	0.159420
	43.910000	0.277814
	43.915000	0.185730
	43.920000	0.064047
	43.925000	0.162708
	43.930000	0.277814
	43.935000	0.185730
	43.940000	0.067335
	43.945000	0.162708
	43.950000	0.281102
	43.955000	0.182441
	43.960000	0.070624
	43.965000	0.156131
	43.970000	0.274525
	43.975000	0.182441
	43.980000	0.070624
	43.985000	0.165997
	43.990000	0.281102
	43.995000	0.182441
	44.000000	0.073913
	44.005000	0.165997
	44.010000	0.284391
	44.015000	0.185730
	44.020000	0.080490
	44.025000	0.172575
	44.030000	0.277814
	44.035000	0.185730
	44.040000	0.077202
	44.045000	0.169286
	44.050000	0.287680
	44.055000	0.192307
	44.060000	0.077202
	44.065000	0.169286
	44.070000	0.290969
	44.075000	0.192307
	44.080000	0.077202
	44.085000	0.182441
	44.090000	0.290969
	44.095000	0.195596
	44.100000	0.083779
	44.105000	0.182441
	44.110000	0.294257
	44.115000	0.198884
	44.120000	0.087068
	44.125000	0.175863
	44.130000	0.290969
	44.135000	0.192307
	44.140000	0.077202
	44.145000	0.175863
	44.150000	0.284391
	44.155000	0.182441
	44.160000	0.067335
	44.165000	0.165997
	44.170000	0.274525
	44.175000	0.175863
	44.180000	0.064047
	44.185000	0.159420
	44.190000	0.274525
	44.195000	0.172575
	44.200000	0.064047
	44.205000	0.165997
	44.210000	0.274525
	44.215000	0.172575
	44.220000	0.057469
	44.225000	0.162708
	44.230000	0.271236
	44.235000	0.172575
	44.240000	0.064047
	44.245000	0.159420
	44.250000	0.274525
	44.255000	0.165997
	44.260000	0.064047
	44.265000	0.162708
	44.270000	0.274525
	44.275000	0.165997
	44.280000	0.064047
	44.285000	0.159420
	44.290000	0.267948
	44.295000	0.172575
	44.300000	0.064047
	44.305000	0.162708
	44.310000	0.277814
	44.315000	0.172575
	44.320000	0.070624
	44.325000	0.175863
	44.330000	0.287680
	44.335000	0.182441
	44.340000	0.077202
	44.345000	0.179152
	44.350000	0.290969
	44.355000	0.195596
	44.360000	0.087068
	44.365000	0.192307
	44.370000	0.294257
	44.375000	0.195596
	44.380000	0.090357
	44.385000	0.195596
	44.390000	0.310701
	44.395000	0.205462
	44.400000	0.106800
	44.405000	0.208751
	44.410000	0.317278
	44.415000	0.208751
	44.420000	0.103511
	44.425000	0.212039
	44.430000	0.313990
	44.435000	0.215328
	44.440000	0.106800
	44.445000	0.212039
	44.450000	0.320567
	44.455000	0.218617
	44.460000	0.116666
	44.465000	0.225194
	44.470000	0.333722
	44.475000	0.221905
	44.480000	0.123244
	44.485000	0.238349
	44.490000	0.340299
	44.495000	0.235060
	44.500000	0.133110
	44.505000	0.244927
	44.510000	0.346877
	44.515000	0.238349
	44.520000	0.136399
	44.525000	0.248215
	44.530000	0.350166
	44.535000	0.244927
	44.540000	0.146265
	44.545000	0.258081
	44.550000	0.360032
	44.555000	0.254793
	44.560000	0.152842
	44.565000	0.261370
	44.570000	0.363321
	44.575000	0.254793
	44.580000	0.149554
	44.585000	0.261370
	44.590000	0.356743
	44.595000	0.251504
	44.600000	0.146265
	44.605000	0.254793
	44.610000	0.356743
	44.615000	0.248215
	44.620000	0.139687
	44.625000	0.251504
	44.630000	0.350166
	44.635000	0.238349
	44.640000	0.133110
	44.645000	0.248215
	44.650000	0.346877
	44.655000	0.235060
	44.660000	0.129821
	44.665000	0.241638
	44.670000	0.340299
	44.675000	0.231772
	44.680000	0.126533
	44.685000	0.241638
	44.690000	0.340299
	44.695000	0.228483
	44.700000	0.123244
	44.705000	0.238349
	44.710000	0.333722
	44.715000	0.218617
	44.720000	0.110089
	44.725000	0.218617
	44.730000	0.317278
	44.735000	0.198884
	44.740000	0.096934
	44.745000	0.212039
	44.750000	0.317278
	44.755000	0.202173
	44.760000	0.110089
	44.765000	0.218617
	44.770000	0.320567
	44.775000	0.208751
	44.780000	0.113378
	44.785000	0.231772
	44.790000	0.330433
	44.795000	0.218617
	44.800000	0.126533
	44.805000	0.235060
	44.810000	0.330433
	44.815000	0.215328
	44.820000	0.119955
	44.825000	0.231772
	44.830000	0.327145
	44.835000	0.215328
	44.840000	0.119955
	44.845000	0.235060
	44.850000	0.327145
	44.855000	0.215328
	44.860000	0.126533
	44.865000	0.235060
	44.870000	0.330433
	44.875000	0.221905
	44.880000	0.123244
	44.885000	0.231772
	44.890000	0.323856
	44.895000	0.208751
	44.900000	0.119955
	44.905000	0.231772
	44.910000	0.323856
	44.915000	0.215328
	44.920000	0.123244
	44.925000	0.235060
	44.930000	0.323856
	44.935000	0.218617
	44.940000	0.123244
	44.945000	0.228483
	44.950000	0.317278
	44.955000	0.212039
	44.960000	0.126533
	44.965000	0.235060
	44.970000	0.320567
	44.975000	0.212039
	44.980000	0.119955
	44.985000	0.225194
	44.990000	0.307412
	44.995000	0.202173
	45.000000	0.106800
	45.005000	0.215328
	45.010000	0.297546
	45.015000	0.182441
	45.020000	0.090357
	45.025000	0.192307
	45.030000	0.281102
	45.035000	0.162708
	45.040000	0.064047
	45.045000	0.152842
	45.050000	0.221905
	45.055000	0.090357
	45.060000	-0.014883
	45.065000	0.060758
	45.070000	0.119955
	45.075000	-0.014883
	45.080000	-0.139854
	45.085000	-0.083946
	45.090000	-0.037904
	45.095000	-0.166164
	45.100000	-0.277980
	45.105000	-0.208917
	45.110000	-0.159586
	45.115000	-0.281269
	45.120000	-0.389797
	45.125000	-0.317445
	45.130000	-0.264826
	45.135000	-0.389797
	45.140000	-0.501614
	45.145000	-0.432550
	45.150000	-0.366776
	45.155000	-0.478592
	45.160000	-0.570677
	45.165000	-0.488459
	45.170000	-0.425973
	45.175000	-0.524635
	45.180000	-0.596987
	45.185000	-0.498325
	45.190000	-0.406241
	45.195000	-0.485170
	45.200000	-0.544367
	45.205000	-0.442417
	45.210000	-0.353621
	45.215000	-0.435839
	45.220000	-0.498325
	45.225000	-0.393086
	45.230000	-0.307579
	45.235000	-0.379931
	45.240000	-0.448994
	45.245000	-0.347044
	45.250000	-0.258248
	45.255000	-0.333889
	45.260000	-0.393086
	45.265000	-0.284558
	45.270000	-0.195762
	45.275000	-0.264826
	45.280000	-0.327311
	45.285000	-0.222072
	45.290000	-0.129988
	45.295000	-0.199051
	45.300000	-0.254959
	45.305000	-0.149720
	45.310000	-0.060925
	45.315000	-0.123410
	45.320000	-0.172741
	45.325000	-0.064213
	45.330000	0.021293
	45.335000	-0.044481
	45.340000	-0.093812
	45.345000	0.018005
	45.350000	0.106800
	45.355000	0.041026
	45.360000	-0.011594
	45.365000	0.100223
	45.370000	0.192307
	45.375000	0.129821
	45.380000	0.090357
	45.385000	0.212039
	45.390000	0.313990
	45.395000	0.258081
	45.400000	0.215328
	45.405000	0.330433
	45.410000	0.425806
	45.415000	0.353454
	45.420000	0.297546
	45.425000	0.399496
	45.430000	0.478426
	45.435000	0.389630
	45.440000	0.320567
	45.445000	0.412651
	45.450000	0.485003
	45.455000	0.379764
	45.460000	0.307412
	45.465000	0.399496
	45.470000	0.468560
	45.475000	0.373187
	45.480000	0.294257
	45.485000	0.389630
	45.490000	0.452116
	45.495000	0.350166
	45.500000	0.267948
	45.505000	0.363321
	45.510000	0.425806
	45.515000	0.300835
	45.520000	0.215328
	45.525000	0.297546
	45.530000	0.353454
	45.535000	0.228483
	45.540000	0.139687
	45.545000	0.231772
	45.550000	0.290969
	45.555000	0.185730
	45.560000	0.106800
	45.565000	0.208751
	45.570000	0.277814
	45.575000	0.169286
	45.580000	0.096934
	45.585000	0.198884
	45.590000	0.264659
	45.595000	0.156131
	45.600000	0.080490
	45.605000	0.179152
	45.610000	0.248215
	45.615000	0.142976
	45.620000	0.070624
	45.625000	0.175863
	45.630000	0.244927
	45.635000	0.139687
	45.640000	0.073913
	45.645000	0.175863
	45.650000	0.248215
	45.655000	0.142976
	45.660000	0.077202
	45.665000	0.195596
	45.670000	0.261370
	45.675000	0.162708
	45.680000	0.100223
	45.685000	0.212039
	45.690000	0.284391
	45.695000	0.185730
	45.700000	0.110089
	45.705000	0.218617
	45.710000	0.284391
	45.715000	0.169286
	45.720000	0.106800
	45.725000	0.215328
	45.730000	0.287680
	45.735000	0.185730
	45.740000	0.119955
	45.745000	0.238349
	45.750000	0.307412
	45.755000	0.205462
	45.760000	0.136399
	45.765000	0.251504
	45.770000	0.320567
	45.775000	0.215328
	45.780000	0.156131
	45.785000	0.267948
	45.790000	0.340299
	45.795000	0.218617
	45.800000	0.156131
	45.805000	0.274525
	45.810000	0.340299
	45.815000	0.221905
	45.820000	0.159420
	45.825000	0.274525
	45.830000	0.337011
	45.835000	0.215328
	45.840000	0.152842
	45.845000	0.267948
	45.850000	0.333722
	45.855000	0.212039
	45.860000	0.146265
	45.865000	0.258081
	45.870000	0.327145
	45.875000	0.202173
	45.880000	0.136399
	45.885000	0.251504
	45.890000	0.320567
	45.895000	0.202173
	45.900000	0.136399
	45.905000	0.261370
	45.910000	0.327145
	45.915000	0.205462
	45.920000	0.136399
	45.925000	0.267948
	45.930000	0.330433
	45.935000	0.208751
	45.940000	0.139687
	45.945000	0.264659
	45.950000	0.327145
	45.955000	0.205462
	45.960000	0.136399
	45.965000	0.258081
	45.970000	0.320567
	45.975000	0.195596
	45.980000	0.126533
	45.985000	0.254793
	45.990000	0.320567
	45.995000	0.189018
	46.000000	0.129821
	46.005000	0.254793
	46.010000	0.313990
	46.015000	0.179152
	46.020000	0.116666
	46.025000	0.238349
	46.030000	0.300835
	46.035000	0.165997
	46.040000	0.100223
	46.045000	0.228483
	46.050000	0.290969
	46.055000	0.156131
	46.060000	0.093645
	46.065000	0.221905
	46.070000	0.281102
	46.075000	0.149554
	46.080000	0.083779
	46.085000	0.212039
	46.090000	0.274525
	46.095000	0.139687
	46.100000	0.083779
	46.105000	0.215328
	46.110000	0.277814
	46.115000	0.146265
	46.120000	0.090357
	46.125000	0.221905
	46.130000	0.284391
	46.135000	0.156131
	46.140000	0.096934
	46.145000	0.231772
	46.150000	0.290969
	46.155000	0.159420
	46.160000	0.100223
	46.165000	0.238349
	46.170000	0.297546
	46.175000	0.165997
	46.180000	0.106800
	46.185000	0.244927
	46.190000	0.304124
	46.195000	0.169286
	46.200000	0.113378
	46.205000	0.251504
	46.210000	0.313990
	46.215000	0.179152
	46.220000	0.123244
	46.225000	0.264659
	46.230000	0.323856
	46.235000	0.192307
	46.240000	0.133110
	46.245000	0.277814
	46.250000	0.337011
	46.255000	0.198884
	46.260000	0.146265
	46.265000	0.281102
	46.270000	0.343588
	46.275000	0.202173
	46.280000	0.146265
	46.285000	0.277814
	46.290000	0.333722
	46.295000	0.198884
	46.300000	0.142976
	46.305000	0.281102
	46.310000	0.337011
	46.315000	0.198884
	46.320000	0.146265
	46.325000	0.287680
	46.330000	0.340299
	46.335000	0.208751
	46.340000	0.152842
	46.345000	0.297546
	46.350000	0.350166
	46.355000	0.208751
	46.360000	0.159420
	46.365000	0.297546
	46.370000	0.353454
	46.375000	0.218617
	46.380000	0.175863
	46.385000	0.304124
	46.390000	0.356743
	46.395000	0.215328
	46.400000	0.169286
	46.405000	0.304124
	46.410000	0.356743
	46.415000	0.218617
	46.420000	0.165997
	46.425000	0.307412
	46.430000	0.356743
	46.435000	0.218617
	46.440000	0.169286
	46.445000	0.304124
	46.450000	0.356743
	46.455000	0.215328
	46.460000	0.162708
	46.465000	0.300835
	46.470000	0.353454
	46.475000	0.205462
	46.480000	0.156131
	46.485000	0.290969
	46.490000	0.350166
	46.495000	0.198884
	46.500000	0.152842
	46.505000	0.287680
	46.510000	0.340299
	46.515000	0.192307
	46.520000	0.142976
	46.525000	0.287680
	46.530000	0.330433
	46.535000	0.182441
	46.540000	0.142976
	46.545000	0.281102
	46.550000	0.323856
	46.555000	0.185730
	46.560000	0.133110
	46.565000	0.277814
	46.570000	0.327145
	46.575000	0.182441
	46.580000	0.133110
	46.585000	0.274525
	46.590000	0.323856
	46.595000	0.175863
	46.600000	0.133110
	46.605000	0.271236
	46.610000	0.317278
	46.615000	0.175863
	46.620000	0.129821
	46.625000	0.271236
	46.630000	0.320567
	46.635000	0.179152
	46.640000	0.136399
	46.645000	0.277814
	46.650000	0.323856
	46.655000	0.179152
	46.660000	0.133110
	46.665000	0.277814
	46.670000	0.323856
	46.675000	0.179152
	46.680000	0.139687
	46.685000	0.277814
	46.690000	0.320567
	46.695000	0.182441
	46.700000	0.136399
	46.705000	0.277814
	46.710000	0.323856
	46.715000	0.185730
	46.720000	0.136399
	46.725000	0.281102
	46.730000	0.320567
	46.735000	0.175863
	46.740000	0.139687
	46.745000	0.281102
	46.750000	0.317278
	46.755000	0.175863
	46.760000	0.136399
	46.765000	0.274525
	46.770000	0.313990
	46.775000	0.172575
	46.780000	0.129821
	46.785000	0.274525
	46.790000	0.310701
	46.795000	0.169286
	46.800000	0.126533
	46.805000	0.274525
	46.810000	0.310701
	46.815000	0.169286
	46.820000	0.123244
	46.825000	0.274525
	46.830000	0.310701
	46.835000	0.162708
	46.840000	0.133110
	46.845000	0.267948
	46.850000	0.310701
	46.855000	0.162708
	46.860000	0.126533
	46.865000	0.274525
	46.870000	0.307412
	46.875000	0.162708
	46.880000	0.123244
	46.885000	0.267948
	46.890000	0.307412
	46.895000	0.159420
	46.900000	0.116666
	46.905000	0.264659
	46.910000	0.304124
	46.915000	0.156131
	46.920000	0.113378
	46.925000	0.264659
	46.930000	0.300835
	46.935000	0.156131
	46.940000	0.113378
	46.945000	0.264659
	46.950000	0.304124
	46.955000	0.156131
	46.960000	0.123244
	46.965000	0.274525
	46.970000	0.313990
	46.975000	0.169286
	46.980000	0.129821
	46.985000	0.277814
	46.990000	0.313990
	46.995000	0.169286
	47.000000	0.139687
	47.005000	0.290969
	47.010000	0.323856
	47.015000	0.182441
	47.020000	0.149554
	47.025000	0.297546
	47.030000	0.330433
	47.035000	0.189018
	47.040000	0.152842
	47.045000	0.307412
	47.050000	0.337011
	47.055000	0.195596
	47.060000	0.162708
	47.065000	0.310701
	47.070000	0.343588
	47.075000	0.195596
	47.080000	0.162708
	47.085000	0.313990
	47.090000	0.343588
	47.095000	0.195596
	47.100000	0.165997
	47.105000	0.304124
	47.110000	0.333722
	47.115000	0.179152
	47.120000	0.142976
	47.125000	0.281102
	47.130000	0.307412
	47.135000	0.162708
	47.140000	0.123244
	47.145000	0.267948
	47.150000	0.290969
	47.155000	0.139687
	47.160000	0.106800
	47.165000	0.251504
	47.170000	0.277814
	47.175000	0.129821
	47.180000	0.096934
	47.185000	0.241638
	47.190000	0.267948
	47.195000	0.126533
	47.200000	0.093645
	47.205000	0.235060
	47.210000	0.254793
	47.215000	0.113378
	47.220000	0.083779
	47.225000	0.221905
	47.230000	0.251504
	47.235000	0.106800
	47.240000	0.077202
	47.245000	0.212039
	47.250000	0.241638
	47.255000	0.096934
	47.260000	0.064047
	47.265000	0.198884
	47.270000	0.221905
	47.275000	0.073913
	47.280000	0.041026
	47.285000	0.172575
	47.290000	0.192307
	47.295000	0.057469
	47.300000	0.034448
	47.305000	0.162708
	47.310000	0.182441
	47.315000	0.044314
	47.320000	0.008138
	47.325000	0.123244
	47.330000	0.110089
	47.335000	-0.083946
	47.340000	-0.185896
	47.345000	-0.116833
	47.350000	-0.123410
	47.355000	-0.271403
	47.360000	-0.310868
	47.365000	-0.192474
	47.370000	-0.179319
	47.375000	-0.310868
	47.380000	-0.340466
	47.385000	-0.225361
	47.390000	-0.199051
	47.395000	-0.327311
	47.400000	-0.363487
	47.405000	-0.248382
	47.410000	-0.228650
	47.415000	-0.360198
	47.420000	-0.389797
	47.425000	-0.271403
	47.430000	-0.251671
	47.435000	-0.379931
	47.440000	-0.412818
	47.445000	-0.301001
	47.450000	-0.277980
	47.455000	-0.399663
	47.460000	-0.425973
	47.465000	-0.314156
	47.470000	-0.291135
	47.475000	-0.416107
	47.480000	-0.435839
	47.485000	-0.317445
	47.490000	-0.284558
	47.495000	-0.393086
	47.500000	-0.409529
	47.505000	-0.287847
	47.510000	-0.248382
	47.515000	-0.350332
	47.520000	-0.363487
	47.525000	-0.231938
	47.530000	-0.199051
	47.535000	-0.291135
	47.540000	-0.301001
	47.545000	-0.176030
	47.550000	-0.133277
	47.555000	-0.228650
	47.560000	-0.238516
	47.565000	-0.110256
	47.570000	-0.067502
	47.575000	-0.162875
	47.580000	-0.169453
	47.585000	-0.034615
	47.590000	-0.001728
	47.595000	-0.093812
	47.600000	-0.093812
	47.605000	0.031160
	47.610000	0.064047
	47.615000	-0.031326
	47.620000	-0.037904
	47.625000	0.087068
	47.630000	0.119955
	47.635000	0.027871
	47.640000	0.018005
	47.645000	0.136399
	47.650000	0.169286
	47.655000	0.064047
	47.660000	0.044314
	47.665000	0.162708
	47.670000	0.185730
	47.675000	0.073913
	47.680000	0.057469
	47.685000	0.165997
	47.690000	0.189018
	47.695000	0.070624
	47.700000	0.050892
	47.705000	0.165997
	47.710000	0.185730
	47.715000	0.073913
	47.720000	0.057469
	47.725000	0.172575
	47.730000	0.189018
	47.735000	0.087068
	47.740000	0.077202
	47.745000	0.198884
	47.750000	0.225194
	47.755000	0.126533
	47.760000	0.119955
	47.765000	0.251504
	47.770000	0.290969
	47.775000	0.208751
	47.780000	0.215328
	47.785000	0.369898
	47.790000	0.422518
	47.795000	0.346877
	47.800000	0.363321
	47.805000	0.511313
	47.810000	0.544200
	47.815000	0.438961
	47.820000	0.435672
	47.825000	0.560644
	47.830000	0.567221
	47.835000	0.458694
	47.840000	0.438961
	47.845000	0.554066
	47.850000	0.560644
	47.855000	0.432384
	47.860000	0.415940
	47.865000	0.531045
	47.870000	0.537623
	47.875000	0.406074
	47.880000	0.379764
	47.885000	0.494869
	47.890000	0.494869
	47.895000	0.353454
	47.900000	0.333722
	47.905000	0.455405
	47.910000	0.458694
	47.915000	0.323856
	47.920000	0.313990
	47.925000	0.432384
	47.930000	0.438961
	47.935000	0.300835
	47.940000	0.287680
	47.945000	0.412651
	47.950000	0.419229
	47.955000	0.277814
	47.960000	0.271236
	47.965000	0.396208
	47.970000	0.402785
	47.975000	0.261370
	47.980000	0.251504
	47.985000	0.389630
	47.990000	0.392919
	47.995000	0.248215
	48.000000	0.248215
	48.005000	0.386342
	48.010000	0.392919
	48.015000	0.248215
	48.020000	0.244927
	48.025000	0.389630
	48.030000	0.392919
	48.035000	0.251504
	48.040000	0.241638
	48.045000	0.383053
	48.050000	0.386342
	48.055000	0.235060
	48.060000	0.231772
	48.065000	0.373187
	48.070000	0.366609
	48.075000	0.221905
	48.080000	0.221905
	48.085000	0.363321
	48.090000	0.366609
	48.095000	0.221905
	48.100000	0.221905
	48.105000	0.363321
	48.110000	0.363321
	48.115000	0.215328
	48.120000	0.202173
	48.125000	0.346877
	48.130000	0.343588
	48.135000	0.195596
	48.140000	0.185730
	48.145000	0.333722
	48.150000	0.327145
	48.155000	0.179152
	48.160000	0.182441
	48.165000	0.323856
	48.170000	0.317278
	48.175000	0.172575
	48.180000	0.169286
	48.185000	0.310701
	48.190000	0.307412
	48.195000	0.162708
	48.200000	0.162708
	48.205000	0.320567
	48.210000	0.317278
	48.215000	0.169286
	48.220000	0.169286
	48.225000	0.320567
	48.230000	0.310701
	48.235000	0.165997
	48.240000	0.169286
	48.245000	0.317278
	48.250000	0.313990
	48.255000	0.165997
	48.260000	0.165997
	48.265000	0.310701
	48.270000	0.307412
	48.275000	0.162708
	48.280000	0.162708
	48.285000	0.313990
	48.290000	0.310701
	48.295000	0.165997
	48.300000	0.169286
	48.305000	0.320567
	48.310000	0.317278
	48.315000	0.165997
	48.320000	0.179152
	48.325000	0.320567
	48.330000	0.317278
	48.335000	0.172575
	48.340000	0.182441
	48.345000	0.327145
	48.350000	0.320567
	48.355000	0.175863
	48.360000	0.182441
	48.365000	0.330433
	48.370000	0.323856
	48.375000	0.179152
	48.380000	0.185730
	48.385000	0.330433
	48.390000	0.320567
	48.395000	0.175863
	48.400000	0.189018
	48.405000	0.337011
	48.410000	0.330433
	48.415000	0.185730
	48.420000	0.198884
	48.425000	0.346877
	48.430000	0.340299
	48.435000	0.195596
	48.440000	0.205462
	48.445000	0.353454
	48.450000	0.346877
	48.455000	0.195596
	48.460000	0.212039
	48.465000	0.353454
	48.470000	0.346877
	48.475000	0.198884
	48.480000	0.212039
	48.485000	0.356743
	48.490000	0.346877
	48.495000	0.195596
	48.500000	0.208751
	48.505000	0.350166
	48.510000	0.337011
	48.515000	0.185730
	48.520000	0.202173
	48.525000	0.350166
	48.530000	0.333722
	48.535000	0.192307
	48.540000	0.202173
	48.545000	0.346877
	48.550000	0.333722
	48.555000	0.185730
	48.560000	0.198884
	48.565000	0.340299
	48.570000	0.327145
	48.575000	0.179152
	48.580000	0.192307
	48.585000	0.340299
	48.590000	0.323856
	48.595000	0.172575
	48.600000	0.192307
	48.605000	0.340299
	48.610000	0.317278
	48.615000	0.172575
	48.620000	0.182441
	48.625000	0.333722
	48.630000	0.313990
	48.635000	0.165997
	48.640000	0.185730
	48.645000	0.330433
	48.650000	0.307412
	48.655000	0.162708
	48.660000	0.179152
	48.665000	0.330433
	48.670000	0.310701
	48.675000	0.162708
	48.680000	0.179152
	48.685000	0.323856
	48.690000	0.304124
	48.695000	0.159420
	48.700000	0.175863
	48.705000	0.327145
	48.710000	0.307412
	48.715000	0.156131
	48.720000	0.172575
	48.725000	0.323856
	48.730000	0.304124
	48.735000	0.156131
	48.740000	0.175863
	48.745000	0.320567
	48.750000	0.304124
	48.755000	0.159420
	48.760000	0.175863
	48.765000	0.323856
	48.770000	0.304124
	48.775000	0.162708
	48.780000	0.179152
	48.785000	0.323856
	48.790000	0.300835
	48.795000	0.156131
	48.800000	0.175863
	48.805000	0.323856
	48.810000	0.304124
	48.815000	0.152842
	48.820000	0.172575
	48.825000	0.317278
	48.830000	0.297546
	48.835000	0.149554
	48.840000	0.175863
	48.845000	0.317278
	48.850000	0.297546
	48.855000	0.152842
	48.860000	0.179152
	48.865000	0.320567
	48.870000	0.294257
	48.875000	0.149554
	48.880000	0.172575
	48.885000	0.320567
	48.890000	0.297546
	48.895000	0.146265
	48.900000	0.169286
	48.905000	0.317278
	48.910000	0.294257
	48.915000	0.142976
	48.920000	0.169286
	48.925000	0.317278
	48.930000	0.290969
	48.935000	0.149554
	48.940000	0.169286
	48.945000	0.317278
	48.950000	0.290969
	48.955000	0.142976
	48.960000	0.169286
	48.965000	0.317278
	48.970000	0.290969
	48.975000	0.136399
	48.980000	0.169286
	48.985000	0.317278
	48.990000	0.290969
	48.995000	0.142976
	49.000000	0.165997
	49.005000	0.310701
	49.010000	0.284391
	49.015000	0.136399
	49.020000	0.162708
	49.025000	0.307412
	49.030000	0.281102
	49.035000	0.136399
	49.040000	0.162708
	49.045000	0.310701
	49.050000	0.281102
	49.055000	0.136399
	49.060000	0.162708
	49.065000	0.313990
	49.070000	0.284391
	49.075000	0.129821
	49.080000	0.159420
	49.085000	0.304124
	49.090000	0.281102
	49.095000	0.133110
	49.100000	0.159420
	49.105000	0.304124
	49.110000	0.274525
	49.115000	0.129821
	49.120000	0.162708
	49.125000	0.304124
	49.130000	0.274525
	49.135000	0.129821
	49.140000	0.159420
	49.145000	0.307412
	49.150000	0.274525
	49.155000	0.126533
	49.160000	0.162708
	49.165000	0.304124
	49.170000	0.271236
	49.175000	0.126533
	49.180000	0.162708
	49.185000	0.300835
	49.190000	0.271236
	49.195000	0.123244
	49.200000	0.159420
	49.205000	0.304124
	49.210000	0.267948
	49.215000	0.126533
	49.220000	0.156131
	49.225000	0.304124
	49.230000	0.271236
	49.235000	0.129821
	49.240000	0.156131
	49.245000	0.304124
	49.250000	0.271236
	49.255000	0.123244
	49.260000	0.159420
	49.265000	0.304124
	49.270000	0.267948
	49.275000	0.126533
	49.280000	0.156131
	49.285000	0.307412
	49.290000	0.267948
	49.295000	0.123244
	49.300000	0.159420
	49.305000	0.304124
	49.310000	0.267948
	49.315000	0.126533
	49.320000	0.162708
	49.325000	0.307412
	49.330000	0.267948
	49.335000	0.119955
	49.340000	0.159420
	49.345000	0.300835
	49.350000	0.264659
	49.355000	0.123244
	49.360000	0.156131
	49.365000	0.307412
	49.370000	0.264659
	49.375000	0.126533
	49.380000	0.162708
	49.385000	0.304124
	49.390000	0.264659
	49.395000	0.123244
	49.400000	0.162708
	49.405000	0.307412
	49.410000	0.267948
	49.415000	0.119955
	49.420000	0.162708
	49.425000	0.304124
	49.430000	0.267948
	49.435000	0.123244
	49.440000	0.165997
	49.445000	0.300835
	49.450000	0.264659
	49.455000	0.123244
	49.460000	0.162708
	49.465000	0.307412
	49.470000	0.264659
	49.475000	0.126533
	49.480000	0.162708
	49.485000	0.304124
	49.490000	0.267948
	49.495000	0.126533
	49.500000	0.165997
	49.505000	0.307412
	49.510000	0.267948
	49.515000	0.126533
	49.520000	0.162708
	49.525000	0.307412
	49.530000	0.264659
	49.535000	0.126533
