2024/7/26 	 22:21:50 
 This file comes from Vt only measurement 	 1.000000E-1 
 Voltage Sensitivity 	 0.000000E+0 
 Sampling rate 	 200 
 Number of samples per channel 	 -1 
 No filter from Labview 	 	 	 
 	 
 ***End_of_Header*** 
 	 Time 	  Voltage 	 Filtered Voltage 	 
	0.000000	1.073685
	0.005000	0.905960
	0.010000	0.886227
	0.015000	1.053952
	0.020000	1.070396
	0.025000	0.902671
	0.030000	0.882939
	0.035000	1.047375
	0.040000	1.070396
	0.045000	0.909249
	0.050000	0.882939
	0.055000	1.047375
	0.060000	1.067107
	0.065000	0.905960
	0.070000	0.879650
	0.075000	1.047375
	0.080000	1.063818
	0.085000	0.905960
	0.090000	0.879650
	0.095000	1.050664
	0.100000	1.063818
	0.105000	0.899382
	0.110000	0.882939
	0.115000	1.044086
	0.120000	1.063818
	0.125000	0.899382
	0.130000	0.879650
	0.135000	1.040797
	0.140000	1.060530
	0.145000	0.896094
	0.150000	0.879650
	0.155000	1.040797
	0.160000	1.060530
	0.165000	0.892805
	0.170000	0.876361
	0.175000	1.037509
	0.180000	1.053952
	0.185000	0.889516
	0.190000	0.876361
	0.195000	1.034220
	0.200000	1.053952
	0.205000	0.889516
	0.210000	0.873073
	0.215000	1.030931
	0.220000	1.050664
	0.225000	0.882939
	0.230000	0.873073
	0.235000	1.037509
	0.240000	1.050664
	0.245000	0.882939
	0.250000	0.866495
	0.255000	1.030931
	0.260000	1.047375
	0.265000	0.879650
	0.270000	0.869784
	0.275000	1.030931
	0.280000	1.047375
	0.285000	0.879650
	0.290000	0.863206
	0.295000	1.027643
	0.300000	1.037509
	0.305000	0.879650
	0.310000	0.863206
	0.315000	1.030931
	0.320000	1.037509
	0.325000	0.876361
	0.330000	0.866495
	0.335000	1.021065
	0.340000	1.034220
	0.345000	0.869784
	0.350000	0.856629
	0.355000	1.021065
	0.360000	1.034220
	0.365000	0.869784
	0.370000	0.856629
	0.375000	1.021065
	0.380000	1.027643
	0.385000	0.866495
	0.390000	0.859918
	0.395000	1.021065
	0.400000	1.027643
	0.405000	0.866495
	0.410000	0.853340
	0.415000	1.017776
	0.420000	1.024354
	0.425000	0.863206
	0.430000	0.856629
	0.435000	1.014488
	0.440000	1.021065
	0.445000	0.859918
	0.450000	0.853340
	0.455000	1.014488
	0.460000	1.021065
	0.465000	0.853340
	0.470000	0.850051
	0.475000	1.014488
	0.480000	1.017776
	0.485000	0.856629
	0.490000	0.843474
	0.495000	1.011199
	0.500000	1.021065
	0.505000	0.856629
	0.510000	0.843474
	0.515000	1.011199
	0.520000	1.014488
	0.525000	0.846763
	0.530000	0.846763
	0.535000	1.011199
	0.540000	1.011199
	0.545000	0.850051
	0.550000	0.843474
	0.555000	1.004621
	0.560000	1.014488
	0.565000	0.846763
	0.570000	0.850051
	0.575000	1.007910
	0.580000	1.007910
	0.585000	0.843474
	0.590000	0.840185
	0.595000	1.004621
	0.600000	1.001333
	0.605000	0.840185
	0.610000	0.840185
	0.615000	1.004621
	0.620000	1.001333
	0.625000	0.836897
	0.630000	0.836897
	0.635000	1.004621
	0.640000	1.001333
	0.645000	0.833608
	0.650000	0.833608
	0.655000	1.001333
	0.660000	0.998044
	0.665000	0.833608
	0.670000	0.833608
	0.675000	0.998044
	0.680000	0.994755
	0.685000	0.833608
	0.690000	0.833608
	0.695000	1.001333
	0.700000	0.994755
	0.705000	0.830319
	0.710000	0.833608
	0.715000	0.998044
	0.720000	0.988178
	0.725000	0.827030
	0.730000	0.833608
	0.735000	0.998044
	0.740000	0.991467
	0.745000	0.827030
	0.750000	0.827030
	0.755000	0.994755
	0.760000	0.988178
	0.765000	0.823742
	0.770000	0.830319
	0.775000	0.994755
	0.780000	0.991467
	0.785000	0.823742
	0.790000	0.827030
	0.795000	0.991467
	0.800000	0.984889
	0.805000	0.820453
	0.810000	0.827030
	0.815000	0.991467
	0.820000	0.978312
	0.825000	0.820453
	0.830000	0.823742
	0.835000	0.988178
	0.840000	0.978312
	0.845000	0.817164
	0.850000	0.827030
	0.855000	0.988178
	0.860000	0.975023
	0.865000	0.817164
	0.870000	0.820453
	0.875000	0.984889
	0.880000	0.978312
	0.885000	0.810587
	0.890000	0.823742
	0.895000	0.984889
	0.900000	0.971734
	0.905000	0.807298
	0.910000	0.823742
	0.915000	0.984889
	0.920000	0.971734
	0.925000	0.807298
	0.930000	0.817164
	0.935000	0.981600
	0.940000	0.971734
	0.945000	0.807298
	0.950000	0.817164
	0.955000	0.984889
	0.960000	0.971734
	0.965000	0.807298
	0.970000	0.817164
	0.975000	0.984889
	0.980000	0.965157
	0.985000	0.804009
	0.990000	0.817164
	0.995000	0.978312
	1.000000	0.965157
	1.005000	0.797432
	1.010000	0.813876
	1.015000	0.975023
	1.020000	0.961868
	1.025000	0.794143
	1.030000	0.810587
	1.035000	0.971734
	1.040000	0.961868
	1.045000	0.797432
	1.050000	0.813876
	1.055000	0.975023
	1.060000	0.952002
	1.065000	0.790854
	1.070000	0.810587
	1.075000	0.971734
	1.080000	0.958579
	1.085000	0.794143
	1.090000	0.804009
	1.095000	0.971734
	1.100000	0.955291
	1.105000	0.787566
	1.110000	0.810587
	1.115000	0.971734
	1.120000	0.948713
	1.125000	0.787566
	1.130000	0.810587
	1.135000	0.968446
	1.140000	0.952002
	1.145000	0.787566
	1.150000	0.810587
	1.155000	0.968446
	1.160000	0.945424
	1.165000	0.780988
	1.170000	0.804009
	1.175000	0.965157
	1.180000	0.948713
	1.185000	0.780988
	1.190000	0.800721
	1.195000	0.965157
	1.200000	0.942136
	1.205000	0.780988
	1.210000	0.800721
	1.215000	0.961868
	1.220000	0.945424
	1.225000	0.777700
	1.230000	0.804009
	1.235000	0.961868
	1.240000	0.935558
	1.245000	0.777700
	1.250000	0.804009
	1.255000	0.965157
	1.260000	0.938847
	1.265000	0.777700
	1.270000	0.800721
	1.275000	0.968446
	1.280000	0.938847
	1.285000	0.774411
	1.290000	0.797432
	1.295000	0.965157
	1.300000	0.928981
	1.305000	0.774411
	1.310000	0.807298
	1.315000	0.961868
	1.320000	0.935558
	1.325000	0.767833
	1.330000	0.797432
	1.335000	0.961868
	1.340000	0.932270
	1.345000	0.767833
	1.350000	0.797432
	1.355000	0.958579
	1.360000	0.932270
	1.365000	0.767833
	1.370000	0.797432
	1.375000	0.961868
	1.380000	0.928981
	1.385000	0.764545
	1.390000	0.794143
	1.395000	0.958579
	1.400000	0.928981
	1.405000	0.761256
	1.410000	0.797432
	1.415000	0.955291
	1.420000	0.922403
	1.425000	0.761256
	1.430000	0.790854
	1.435000	0.948713
	1.440000	0.925692
	1.445000	0.761256
	1.450000	0.794143
	1.455000	0.952002
	1.460000	0.922403
	1.465000	0.761256
	1.470000	0.787566
	1.475000	0.952002
	1.480000	0.919115
	1.485000	0.757967
	1.490000	0.787566
	1.495000	0.952002
	1.500000	0.919115
	1.505000	0.754679
	1.510000	0.787566
	1.515000	0.945424
	1.520000	0.912537
	1.525000	0.748101
	1.530000	0.794143
	1.535000	0.948713
	1.540000	0.915826
	1.545000	0.754679
	1.550000	0.784277
	1.555000	0.945424
	1.560000	0.905960
	1.565000	0.751390
	1.570000	0.787566
	1.575000	0.945424
	1.580000	0.909249
	1.585000	0.748101
	1.590000	0.784277
	1.595000	0.945424
	1.600000	0.905960
	1.605000	0.744812
	1.610000	0.787566
	1.615000	0.945424
	1.620000	0.909249
	1.625000	0.748101
	1.630000	0.777700
	1.635000	0.945424
	1.640000	0.905960
	1.645000	0.741524
	1.650000	0.784277
	1.655000	0.942136
	1.660000	0.905960
	1.665000	0.734946
	1.670000	0.784277
	1.675000	0.938847
	1.680000	0.899382
	1.685000	0.741524
	1.690000	0.784277
	1.695000	0.938847
	1.700000	0.899382
	1.705000	0.741524
	1.710000	0.777700
	1.715000	0.942136
	1.720000	0.892805
	1.725000	0.734946
	1.730000	0.777700
	1.735000	0.935558
	1.740000	0.889516
	1.745000	0.734946
	1.750000	0.771122
	1.755000	0.935558
	1.760000	0.892805
	1.765000	0.731657
	1.770000	0.771122
	1.775000	0.932270
	1.780000	0.889516
	1.785000	0.725080
	1.790000	0.771122
	1.795000	0.928981
	1.800000	0.886227
	1.805000	0.731657
	1.810000	0.767833
	1.815000	0.925692
	1.820000	0.879650
	1.825000	0.725080
	1.830000	0.764545
	1.835000	0.925692
	1.840000	0.873073
	1.845000	0.715214
	1.850000	0.757967
	1.855000	0.922403
	1.860000	0.869784
	1.865000	0.708636
	1.870000	0.754679
	1.875000	0.909249
	1.880000	0.863206
	1.885000	0.708636
	1.890000	0.751390
	1.895000	0.909249
	1.900000	0.863206
	1.905000	0.702059
	1.910000	0.751390
	1.915000	0.905960
	1.920000	0.859918
	1.925000	0.702059
	1.930000	0.741524
	1.935000	0.902671
	1.940000	0.853340
	1.945000	0.688904
	1.950000	0.744812
	1.955000	0.905960
	1.960000	0.853340
	1.965000	0.695482
	1.970000	0.748101
	1.975000	0.915826
	1.980000	0.873073
	1.985000	0.728369
	1.990000	0.797432
	1.995000	0.971734
	2.000000	0.925692
	2.005000	0.764545
	2.010000	0.827030
	2.015000	0.984889
	2.020000	0.935558
	2.025000	0.771122
	2.030000	0.827030
	2.035000	0.991467
	2.040000	0.942136
	2.045000	0.780988
	2.050000	0.836897
	2.055000	0.994755
	2.060000	0.942136
	2.065000	0.780988
	2.070000	0.833608
	2.075000	0.998044
	2.080000	0.942136
	2.085000	0.771122
	2.090000	0.830319
	2.095000	0.991467
	2.100000	0.935558
	2.105000	0.767833
	2.110000	0.823742
	2.115000	0.984889
	2.120000	0.932270
	2.125000	0.764545
	2.130000	0.820453
	2.135000	0.984889
	2.140000	0.925692
	2.145000	0.757967
	2.150000	0.807298
	2.155000	0.978312
	2.160000	0.915826
	2.165000	0.751390
	2.170000	0.804009
	2.175000	0.971734
	2.180000	0.915826
	2.185000	0.744812
	2.190000	0.804009
	2.195000	0.968446
	2.200000	0.909249
	2.205000	0.741524
	2.210000	0.794143
	2.215000	0.955291
	2.220000	0.896094
	2.225000	0.728369
	2.230000	0.787566
	2.235000	0.952002
	2.240000	0.889516
	2.245000	0.725080
	2.250000	0.777700
	2.255000	0.945424
	2.260000	0.889516
	2.265000	0.718503
	2.270000	0.780988
	2.275000	0.942136
	2.280000	0.879650
	2.285000	0.718503
	2.290000	0.777700
	2.295000	0.935558
	2.300000	0.879650
	2.305000	0.715214
	2.310000	0.777700
	2.315000	0.932270
	2.320000	0.869784
	2.325000	0.711925
	2.330000	0.767833
	2.335000	0.935558
	2.340000	0.869784
	2.345000	0.711925
	2.350000	0.761256
	2.355000	0.932270
	2.360000	0.869784
	2.365000	0.708636
	2.370000	0.764545
	2.375000	0.922403
	2.380000	0.859918
	2.385000	0.695482
	2.390000	0.757967
	2.395000	0.922403
	2.400000	0.846763
	2.405000	0.692193
	2.410000	0.748101
	2.415000	0.905960
	2.420000	0.843474
	2.425000	0.675749
	2.430000	0.741524
	2.435000	0.896094
	2.440000	0.823742
	2.445000	0.662594
	2.450000	0.725080
	2.455000	0.873073
	2.460000	0.794143
	2.465000	0.623130
	2.470000	0.682327
	2.475000	0.827030
	2.480000	0.757967
	2.485000	0.590242
	2.490000	0.649439
	2.495000	0.800721
	2.500000	0.725080
	2.505000	0.567221
	2.510000	0.632996
	2.515000	0.780988
	2.520000	0.711925
	2.525000	0.557355
	2.530000	0.623130
	2.535000	0.774411
	2.540000	0.698770
	2.545000	0.544200
	2.550000	0.609975
	2.555000	0.767833
	2.560000	0.695482
	2.565000	0.544200
	2.570000	0.613263
	2.575000	0.764545
	2.580000	0.695482
	2.585000	0.540912
	2.590000	0.613263
	2.595000	0.751390
	2.600000	0.692193
	2.605000	0.534334
	2.610000	0.606686
	2.615000	0.754679
	2.620000	0.685615
	2.625000	0.534334
	2.630000	0.600109
	2.635000	0.754679
	2.640000	0.679038
	2.645000	0.524468
	2.650000	0.600109
	2.655000	0.748101
	2.660000	0.682327
	2.665000	0.527757
	2.670000	0.603397
	2.675000	0.751390
	2.680000	0.679038
	2.685000	0.531045
	2.690000	0.600109
	2.695000	0.751390
	2.700000	0.679038
	2.705000	0.531045
	2.710000	0.603397
	2.715000	0.754679
	2.720000	0.675749
	2.725000	0.534334
	2.730000	0.609975
	2.735000	0.751390
	2.740000	0.679038
	2.745000	0.531045
	2.750000	0.609975
	2.755000	0.757967
	2.760000	0.682327
	2.765000	0.537623
	2.770000	0.609975
	2.775000	0.754679
	2.780000	0.682327
	2.785000	0.534334
	2.790000	0.613263
	2.795000	0.757967
	2.800000	0.685615
	2.805000	0.540912
	2.810000	0.616552
	2.815000	0.764545
	2.820000	0.685615
	2.825000	0.540912
	2.830000	0.619841
	2.835000	0.767833
	2.840000	0.688904
	2.845000	0.544200
	2.850000	0.619841
	2.855000	0.764545
	2.860000	0.695482
	2.865000	0.547489
	2.870000	0.623130
	2.875000	0.774411
	2.880000	0.695482
	2.885000	0.550778
	2.890000	0.632996
	2.895000	0.774411
	2.900000	0.698770
	2.905000	0.550778
	2.910000	0.632996
	2.915000	0.771122
	2.920000	0.702059
	2.925000	0.550778
	2.930000	0.629707
	2.935000	0.780988
	2.940000	0.695482
	2.945000	0.560644
	2.950000	0.632996
	2.955000	0.774411
	2.960000	0.702059
	2.965000	0.557355
	2.970000	0.632996
	2.975000	0.777700
	2.980000	0.698770
	2.985000	0.557355
	2.990000	0.642862
	2.995000	0.784277
	3.000000	0.702059
	3.005000	0.560644
	3.010000	0.642862
	3.015000	0.777700
	3.020000	0.702059
	3.025000	0.563933
	3.030000	0.642862
	3.035000	0.780988
	3.040000	0.702059
	3.045000	0.557355
	3.050000	0.642862
	3.055000	0.780988
	3.060000	0.698770
	3.065000	0.557355
	3.070000	0.636285
	3.075000	0.784277
	3.080000	0.698770
	3.085000	0.554066
	3.090000	0.636285
	3.095000	0.777700
	3.100000	0.695482
	3.105000	0.554066
	3.110000	0.632996
	3.115000	0.777700
	3.120000	0.688904
	3.125000	0.550778
	3.130000	0.632996
	3.135000	0.774411
	3.140000	0.685615
	3.145000	0.547489
	3.150000	0.636285
	3.155000	0.780988
	3.160000	0.692193
	3.165000	0.547489
	3.170000	0.636285
	3.175000	0.774411
	3.180000	0.688904
	3.185000	0.554066
	3.190000	0.636285
	3.195000	0.774411
	3.200000	0.688904
	3.205000	0.550778
	3.210000	0.639573
	3.215000	0.777700
	3.220000	0.688904
	3.225000	0.554066
	3.230000	0.636285
	3.235000	0.777700
	3.240000	0.688904
	3.245000	0.554066
	3.250000	0.636285
	3.255000	0.774411
	3.260000	0.682327
	3.265000	0.544200
	3.270000	0.639573
	3.275000	0.774411
	3.280000	0.685615
	3.285000	0.547489
	3.290000	0.632996
	3.295000	0.780988
	3.300000	0.685615
	3.305000	0.544200
	3.310000	0.632996
	3.315000	0.771122
	3.320000	0.685615
	3.325000	0.540912
	3.330000	0.632996
	3.335000	0.774411
	3.340000	0.682327
	3.345000	0.544200
	3.350000	0.636285
	3.355000	0.771122
	3.360000	0.679038
	3.365000	0.544200
	3.370000	0.636285
	3.375000	0.767833
	3.380000	0.675749
	3.385000	0.540912
	3.390000	0.632996
	3.395000	0.767833
	3.400000	0.679038
	3.405000	0.540912
	3.410000	0.632996
	3.415000	0.771122
	3.420000	0.679038
	3.425000	0.544200
	3.430000	0.639573
	3.435000	0.774411
	3.440000	0.672460
	3.445000	0.544200
	3.450000	0.642862
	3.455000	0.774411
	3.460000	0.679038
	3.465000	0.544200
	3.470000	0.639573
	3.475000	0.771122
	3.480000	0.682327
	3.485000	0.540912
	3.490000	0.636285
	3.495000	0.774411
	3.500000	0.682327
	3.505000	0.544200
	3.510000	0.642862
	3.515000	0.771122
	3.520000	0.682327
	3.525000	0.544200
	3.530000	0.642862
	3.535000	0.774411
	3.540000	0.679038
	3.545000	0.547489
	3.550000	0.642862
	3.555000	0.780988
	3.560000	0.682327
	3.565000	0.554066
	3.570000	0.646151
	3.575000	0.777700
	3.580000	0.679038
	3.585000	0.550778
	3.590000	0.649439
	3.595000	0.780988
	3.600000	0.685615
	3.605000	0.554066
	3.610000	0.649439
	3.615000	0.784277
	3.620000	0.682327
	3.625000	0.554066
	3.630000	0.652728
	3.635000	0.784277
	3.640000	0.688904
	3.645000	0.550778
	3.650000	0.656017
	3.655000	0.784277
	3.660000	0.688904
	3.665000	0.554066
	3.670000	0.652728
	3.675000	0.780988
	3.680000	0.685615
	3.685000	0.557355
	3.690000	0.656017
	3.695000	0.784277
	3.700000	0.682327
	3.705000	0.557355
	3.710000	0.652728
	3.715000	0.777700
	3.720000	0.675749
	3.725000	0.550778
	3.730000	0.649439
	3.735000	0.777700
	3.740000	0.675749
	3.745000	0.547489
	3.750000	0.649439
	3.755000	0.774411
	3.760000	0.672460
	3.765000	0.544200
	3.770000	0.649439
	3.775000	0.771122
	3.780000	0.675749
	3.785000	0.540912
	3.790000	0.642862
	3.795000	0.771122
	3.800000	0.669172
	3.805000	0.537623
	3.810000	0.646151
	3.815000	0.761256
	3.820000	0.665883
	3.825000	0.537623
	3.830000	0.642862
	3.835000	0.761256
	3.840000	0.659306
	3.845000	0.540912
	3.850000	0.639573
	3.855000	0.761256
	3.860000	0.659306
	3.865000	0.534334
	3.870000	0.636285
	3.875000	0.761256
	3.880000	0.656017
	3.885000	0.531045
	3.890000	0.636285
	3.895000	0.757967
	3.900000	0.652728
	3.905000	0.531045
	3.910000	0.636285
	3.915000	0.754679
	3.920000	0.646151
	3.925000	0.527757
	3.930000	0.629707
	3.935000	0.751390
	3.940000	0.642862
	3.945000	0.524468
	3.950000	0.626418
	3.955000	0.748101
	3.960000	0.636285
	3.965000	0.517891
	3.970000	0.626418
	3.975000	0.744812
	3.980000	0.639573
	3.985000	0.521179
	3.990000	0.626418
	3.995000	0.748101
	4.000000	0.646151
	4.005000	0.517891
	4.010000	0.632996
	4.015000	0.754679
	4.020000	0.646151
	4.025000	0.527757
	4.030000	0.642862
	4.035000	0.761256
	4.040000	0.656017
	4.045000	0.540912
	4.050000	0.656017
	4.055000	0.777700
	4.060000	0.675749
	4.065000	0.563933
	4.070000	0.685615
	4.075000	0.817164
	4.080000	0.715214
	4.085000	0.596820
	4.090000	0.711925
	4.095000	0.843474
	4.100000	0.731657
	4.105000	0.609975
	4.110000	0.728369
	4.115000	0.853340
	4.120000	0.741524
	4.125000	0.619841
	4.130000	0.728369
	4.135000	0.853340
	4.140000	0.738235
	4.145000	0.616552
	4.150000	0.731657
	4.155000	0.850051
	4.160000	0.734946
	4.165000	0.609975
	4.170000	0.721791
	4.175000	0.853340
	4.180000	0.728369
	4.185000	0.603397
	4.190000	0.715214
	4.195000	0.843474
	4.200000	0.725080
	4.205000	0.600109
	4.210000	0.715214
	4.215000	0.836897
	4.220000	0.718503
	4.225000	0.603397
	4.230000	0.718503
	4.235000	0.836897
	4.240000	0.721791
	4.245000	0.596820
	4.250000	0.715214
	4.255000	0.830319
	4.260000	0.718503
	4.265000	0.593531
	4.270000	0.711925
	4.275000	0.833608
	4.280000	0.708636
	4.285000	0.596820
	4.290000	0.708636
	4.295000	0.830319
	4.300000	0.708636
	4.305000	0.586954
	4.310000	0.702059
	4.315000	0.823742
	4.320000	0.702059
	4.325000	0.580376
	4.330000	0.695482
	4.335000	0.813876
	4.340000	0.695482
	4.345000	0.573799
	4.350000	0.688904
	4.355000	0.813876
	4.360000	0.688904
	4.365000	0.570510
	4.370000	0.688904
	4.375000	0.807298
	4.380000	0.685615
	4.385000	0.563933
	4.390000	0.685615
	4.395000	0.804009
	4.400000	0.682327
	4.405000	0.563933
	4.410000	0.679038
	4.415000	0.797432
	4.420000	0.675749
	4.425000	0.560644
	4.430000	0.679038
	4.435000	0.790854
	4.440000	0.672460
	4.445000	0.550778
	4.450000	0.672460
	4.455000	0.787566
	4.460000	0.669172
	4.465000	0.550778
	4.470000	0.669172
	4.475000	0.780988
	4.480000	0.659306
	4.485000	0.544200
	4.490000	0.662594
	4.495000	0.777700
	4.500000	0.649439
	4.505000	0.531045
	4.510000	0.649439
	4.515000	0.754679
	4.520000	0.623130
	4.525000	0.508024
	4.530000	0.623130
	4.535000	0.725080
	4.540000	0.600109
	4.545000	0.485003
	4.550000	0.600109
	4.555000	0.702059
	4.560000	0.583665
	4.565000	0.468560
	4.570000	0.583665
	4.575000	0.692193
	4.580000	0.567221
	4.585000	0.455405
	4.590000	0.577088
	4.595000	0.679038
	4.600000	0.554066
	4.605000	0.448827
	4.610000	0.567221
	4.615000	0.672460
	4.620000	0.550778
	4.625000	0.442250
	4.630000	0.560644
	4.635000	0.669172
	4.640000	0.544200
	4.645000	0.442250
	4.650000	0.560644
	4.655000	0.669172
	4.660000	0.544200
	4.665000	0.435672
	4.670000	0.557355
	4.675000	0.662594
	4.680000	0.540912
	4.685000	0.435672
	4.690000	0.560644
	4.695000	0.662594
	4.700000	0.537623
	4.705000	0.435672
	4.710000	0.554066
	4.715000	0.662594
	4.720000	0.534334
	4.725000	0.438961
	4.730000	0.554066
	4.735000	0.656017
	4.740000	0.534334
	4.745000	0.432384
	4.750000	0.557355
	4.755000	0.659306
	4.760000	0.531045
	4.765000	0.432384
	4.770000	0.550778
	4.775000	0.656017
	4.780000	0.534334
	4.785000	0.432384
	4.790000	0.557355
	4.795000	0.656017
	4.800000	0.534334
	4.805000	0.438961
	4.810000	0.563933
	4.815000	0.665883
	4.820000	0.544200
	4.825000	0.442250
	4.830000	0.570510
	4.835000	0.665883
	4.840000	0.544200
	4.845000	0.445539
	4.850000	0.577088
	4.855000	0.675749
	4.860000	0.547489
	4.865000	0.452116
	4.870000	0.573799
	4.875000	0.675749
	4.880000	0.554066
	4.885000	0.458694
	4.890000	0.580376
	4.895000	0.679038
	4.900000	0.547489
	4.905000	0.458694
	4.910000	0.583665
	4.915000	0.679038
	4.920000	0.550778
	4.925000	0.452116
	4.930000	0.590242
	4.935000	0.679038
	4.940000	0.550778
	4.945000	0.455405
	4.950000	0.583665
	4.955000	0.682327
	4.960000	0.554066
	4.965000	0.461982
	4.970000	0.586954
	4.975000	0.685615
	4.980000	0.554066
	4.985000	0.461982
	4.990000	0.590242
	4.995000	0.685615
	5.000000	0.560644
	5.005000	0.461982
	5.010000	0.593531
	5.015000	0.685615
	5.020000	0.563933
	5.025000	0.468560
	5.030000	0.593531
	5.035000	0.682327
	5.040000	0.557355
	5.045000	0.465271
	5.050000	0.593531
	5.055000	0.685615
	5.060000	0.554066
	5.065000	0.461982
	5.070000	0.590242
	5.075000	0.685615
	5.080000	0.554066
	5.085000	0.458694
	5.090000	0.586954
	5.095000	0.682327
	5.100000	0.554066
	5.105000	0.458694
	5.110000	0.590242
	5.115000	0.682327
	5.120000	0.550778
	5.125000	0.458694
	5.130000	0.590242
	5.135000	0.682327
	5.140000	0.554066
	5.145000	0.461982
	5.150000	0.590242
	5.155000	0.682327
	5.160000	0.557355
	5.165000	0.465271
	5.170000	0.593531
	5.175000	0.682327
	5.180000	0.554066
	5.185000	0.461982
	5.190000	0.593531
	5.195000	0.682327
	5.200000	0.550778
	5.205000	0.465271
	5.210000	0.593531
	5.215000	0.682327
	5.220000	0.550778
	5.225000	0.455405
	5.230000	0.590242
	5.235000	0.682327
	5.240000	0.547489
	5.245000	0.461982
	5.250000	0.593531
	5.255000	0.682327
	5.260000	0.540912
	5.265000	0.461982
	5.270000	0.593531
	5.275000	0.682327
	5.280000	0.547489
	5.285000	0.458694
	5.290000	0.590242
	5.295000	0.682327
	5.300000	0.544200
	5.305000	0.465271
	5.310000	0.596820
	5.315000	0.679038
	5.320000	0.544200
	5.325000	0.455405
	5.330000	0.590242
	5.335000	0.675749
	5.340000	0.544200
	5.345000	0.461982
	5.350000	0.593531
	5.355000	0.682327
	5.360000	0.540912
	5.365000	0.458694
	5.370000	0.593531
	5.375000	0.682327
	5.380000	0.544200
	5.385000	0.461982
	5.390000	0.590242
	5.395000	0.682327
	5.400000	0.547489
	5.405000	0.461982
	5.410000	0.596820
	5.415000	0.679038
	5.420000	0.544200
	5.425000	0.458694
	5.430000	0.596820
	5.435000	0.675749
	5.440000	0.544200
	5.445000	0.461982
	5.450000	0.600109
	5.455000	0.679038
	5.460000	0.544200
	5.465000	0.461982
	5.470000	0.596820
	5.475000	0.675749
	5.480000	0.540912
	5.485000	0.455405
	5.490000	0.593531
	5.495000	0.675749
	5.500000	0.537623
	5.505000	0.458694
	5.510000	0.593531
	5.515000	0.679038
	5.520000	0.540912
	5.525000	0.458694
	5.530000	0.596820
	5.535000	0.675749
	5.540000	0.537623
	5.545000	0.458694
	5.550000	0.600109
	5.555000	0.679038
	5.560000	0.544200
	5.565000	0.465271
	5.570000	0.603397
	5.575000	0.679038
	5.580000	0.544200
	5.585000	0.465271
	5.590000	0.600109
	5.595000	0.675749
	5.600000	0.544200
	5.605000	0.465271
	5.610000	0.603397
	5.615000	0.679038
	5.620000	0.540912
	5.625000	0.461982
	5.630000	0.606686
	5.635000	0.679038
	5.640000	0.544200
	5.645000	0.465271
	5.650000	0.600109
	5.655000	0.682327
	5.660000	0.540912
	5.665000	0.468560
	5.670000	0.606686
	5.675000	0.675749
	5.680000	0.537623
	5.685000	0.468560
	5.690000	0.606686
	5.695000	0.679038
	5.700000	0.540912
	5.705000	0.465271
	5.710000	0.606686
	5.715000	0.682327
	5.720000	0.537623
	5.725000	0.465271
	5.730000	0.603397
	5.735000	0.682327
	5.740000	0.537623
	5.745000	0.465271
	5.750000	0.603397
	5.755000	0.685615
	5.760000	0.537623
	5.765000	0.468560
	5.770000	0.603397
	5.775000	0.679038
	5.780000	0.537623
	5.785000	0.465271
	5.790000	0.606686
	5.795000	0.672460
	5.800000	0.534334
	5.805000	0.458694
	5.810000	0.603397
	5.815000	0.672460
	5.820000	0.537623
	5.825000	0.461982
	5.830000	0.603397
	5.835000	0.675749
	5.840000	0.527757
	5.845000	0.465271
	5.850000	0.603397
	5.855000	0.672460
	5.860000	0.531045
	5.865000	0.461982
	5.870000	0.606686
	5.875000	0.672460
	5.880000	0.524468
	5.885000	0.452116
	5.890000	0.603397
	5.895000	0.669172
	5.900000	0.524468
	5.905000	0.458694
	5.910000	0.603397
	5.915000	0.669172
	5.920000	0.521179
	5.925000	0.455405
	5.930000	0.596820
	5.935000	0.665883
	5.940000	0.524468
	5.945000	0.455405
	5.950000	0.600109
	5.955000	0.669172
	5.960000	0.524468
	5.965000	0.455405
	5.970000	0.596820
	5.975000	0.669172
	5.980000	0.524468
	5.985000	0.448827
	5.990000	0.596820
	5.995000	0.665883
	6.000000	0.517891
	6.005000	0.455405
	6.010000	0.600109
	6.015000	0.662594
	6.020000	0.517891
	6.025000	0.448827
	6.030000	0.600109
	6.035000	0.659306
	6.040000	0.514602
	6.045000	0.448827
	6.050000	0.593531
	6.055000	0.662594
	6.060000	0.511313
	6.065000	0.452116
	6.070000	0.593531
	6.075000	0.659306
	6.080000	0.508024
	6.085000	0.442250
	6.090000	0.596820
	6.095000	0.652728
	6.100000	0.511313
	6.105000	0.442250
	6.110000	0.593531
	6.115000	0.656017
	6.120000	0.504736
	6.125000	0.445539
	6.130000	0.596820
	6.135000	0.656017
	6.140000	0.504736
	6.145000	0.442250
	6.150000	0.590242
	6.155000	0.652728
	6.160000	0.504736
	6.165000	0.442250
	6.170000	0.593531
	6.175000	0.656017
	6.180000	0.504736
	6.185000	0.442250
	6.190000	0.596820
	6.195000	0.662594
	6.200000	0.511313
	6.205000	0.448827
	6.210000	0.600109
	6.215000	0.669172
	6.220000	0.517891
	6.225000	0.461982
	6.230000	0.616552
	6.235000	0.675749
	6.240000	0.527757
	6.245000	0.471848
	6.250000	0.626418
	6.255000	0.695482
	6.260000	0.544200
	6.265000	0.494869
	6.270000	0.649439
	6.275000	0.718503
	6.280000	0.570510
	6.285000	0.514602
	6.290000	0.682327
	6.295000	0.741524
	6.300000	0.586954
	6.305000	0.527757
	6.310000	0.688904
	6.315000	0.754679
	6.320000	0.600109
	6.325000	0.540912
	6.330000	0.702059
	6.335000	0.757967
	6.340000	0.596820
	6.345000	0.540912
	6.350000	0.695482
	6.355000	0.754679
	6.360000	0.596820
	6.365000	0.531045
	6.370000	0.692193
	6.375000	0.748101
	6.380000	0.586954
	6.385000	0.527757
	6.390000	0.685615
	6.395000	0.744812
	6.400000	0.583665
	6.405000	0.521179
	6.410000	0.682327
	6.415000	0.738235
	6.420000	0.577088
	6.425000	0.521179
	6.430000	0.679038
	6.435000	0.738235
	6.440000	0.577088
	6.445000	0.517891
	6.450000	0.679038
	6.455000	0.731657
	6.460000	0.567221
	6.465000	0.511313
	6.470000	0.669172
	6.475000	0.725080
	6.480000	0.563933
	6.485000	0.508024
	6.490000	0.669172
	6.495000	0.721791
	6.500000	0.560644
	6.505000	0.504736
	6.510000	0.669172
	6.515000	0.718503
	6.520000	0.560644
	6.525000	0.501447
	6.530000	0.656017
	6.535000	0.715214
	6.540000	0.554066
	6.545000	0.491581
	6.550000	0.656017
	6.555000	0.711925
	6.560000	0.547489
	6.565000	0.494869
	6.570000	0.659306
	6.575000	0.711925
	6.580000	0.550778
	6.585000	0.494869
	6.590000	0.656017
	6.595000	0.708636
	6.600000	0.540912
	6.605000	0.494869
	6.610000	0.656017
	6.615000	0.705348
	6.620000	0.544200
	6.625000	0.491581
	6.630000	0.652728
	6.635000	0.702059
	6.640000	0.537623
	6.645000	0.485003
	6.650000	0.642862
	6.655000	0.695482
	6.660000	0.527757
	6.665000	0.481715
	6.670000	0.632996
	6.675000	0.685615
	6.680000	0.524468
	6.685000	0.475137
	6.690000	0.629707
	6.695000	0.679038
	6.700000	0.517891
	6.705000	0.461982
	6.710000	0.619841
	6.715000	0.662594
	6.720000	0.501447
	6.725000	0.438961
	6.730000	0.593531
	6.735000	0.632996
	6.740000	0.458694
	6.745000	0.409363
	6.750000	0.560644
	6.755000	0.600109
	6.760000	0.438961
	6.765000	0.386342
	6.770000	0.537623
	6.775000	0.580376
	6.780000	0.415940
	6.785000	0.373187
	6.790000	0.517891
	6.795000	0.567221
	6.800000	0.406074
	6.805000	0.356743
	6.810000	0.517891
	6.815000	0.550778
	6.820000	0.396208
	6.825000	0.356743
	6.830000	0.511313
	6.835000	0.550778
	6.840000	0.396208
	6.845000	0.353454
	6.850000	0.508024
	6.855000	0.550778
	6.860000	0.392919
	6.865000	0.350166
	6.870000	0.508024
	6.875000	0.544200
	6.880000	0.389630
	6.885000	0.350166
	6.890000	0.508024
	6.895000	0.547489
	6.900000	0.392919
	6.905000	0.350166
	6.910000	0.511313
	6.915000	0.544200
	6.920000	0.392919
	6.925000	0.353454
	6.930000	0.514602
	6.935000	0.550778
	6.940000	0.392919
	6.945000	0.356743
	6.950000	0.517891
	6.955000	0.554066
	6.960000	0.396208
	6.965000	0.356743
	6.970000	0.514602
	6.975000	0.550778
	6.980000	0.396208
	6.985000	0.356743
	6.990000	0.514602
	6.995000	0.550778
	7.000000	0.392919
	7.005000	0.353454
	7.010000	0.517891
	7.015000	0.554066
	7.020000	0.389630
	7.025000	0.356743
	7.030000	0.521179
	7.035000	0.547489
	7.040000	0.396208
	7.045000	0.360032
	7.050000	0.517891
	7.055000	0.550778
	7.060000	0.402785
	7.065000	0.363321
	7.070000	0.521179
	7.075000	0.554066
	7.080000	0.402785
	7.085000	0.366609
	7.090000	0.524468
	7.095000	0.550778
	7.100000	0.399496
	7.105000	0.366609
	7.110000	0.527757
	7.115000	0.557355
	7.120000	0.406074
	7.125000	0.369898
	7.130000	0.531045
	7.135000	0.560644
	7.140000	0.402785
	7.145000	0.376475
	7.150000	0.531045
	7.155000	0.563933
	7.160000	0.406074
	7.165000	0.379764
	7.170000	0.534334
	7.175000	0.563933
	7.180000	0.402785
	7.185000	0.373187
	7.190000	0.537623
	7.195000	0.570510
	7.200000	0.409363
	7.205000	0.386342
	7.210000	0.540912
	7.215000	0.570510
	7.220000	0.409363
	7.225000	0.389630
	7.230000	0.544200
	7.235000	0.577088
	7.240000	0.415940
	7.245000	0.386342
	7.250000	0.544200
	7.255000	0.573799
	7.260000	0.415940
	7.265000	0.389630
	7.270000	0.547489
	7.275000	0.577088
	7.280000	0.415940
	7.285000	0.389630
	7.290000	0.547489
	7.295000	0.577088
	7.300000	0.415940
	7.305000	0.386342
	7.310000	0.550778
	7.315000	0.573799
	7.320000	0.415940
	7.325000	0.396208
	7.330000	0.547489
	7.335000	0.577088
	7.340000	0.415940
	7.345000	0.389630
	7.350000	0.550778
	7.355000	0.573799
	7.360000	0.415940
	7.365000	0.392919
	7.370000	0.557355
	7.375000	0.577088
	7.380000	0.415940
	7.385000	0.392919
	7.390000	0.550778
	7.395000	0.577088
	7.400000	0.419229
	7.405000	0.392919
	7.410000	0.550778
	7.415000	0.573799
	7.420000	0.412651
	7.425000	0.389630
	7.430000	0.550778
	7.435000	0.573799
	7.440000	0.412651
	7.445000	0.389630
	7.450000	0.547489
	7.455000	0.570510
	7.460000	0.412651
	7.465000	0.386342
	7.470000	0.550778
	7.475000	0.570510
	7.480000	0.412651
	7.485000	0.396208
	7.490000	0.547489
	7.495000	0.573799
	7.500000	0.415940
	7.505000	0.392919
	7.510000	0.554066
	7.515000	0.573799
	7.520000	0.412651
	7.525000	0.392919
	7.530000	0.550778
	7.535000	0.573799
	7.540000	0.412651
	7.545000	0.389630
	7.550000	0.554066
	7.555000	0.570510
	7.560000	0.412651
	7.565000	0.396208
	7.570000	0.554066
	7.575000	0.573799
	7.580000	0.409363
	7.585000	0.392919
	7.590000	0.550778
	7.595000	0.567221
	7.600000	0.415940
	7.605000	0.392919
	7.610000	0.554066
	7.615000	0.567221
	7.620000	0.412651
	7.625000	0.392919
	7.630000	0.554066
	7.635000	0.570510
	7.640000	0.412651
	7.645000	0.392919
	7.650000	0.554066
	7.655000	0.567221
	7.660000	0.409363
	7.665000	0.396208
	7.670000	0.550778
	7.675000	0.563933
	7.680000	0.409363
	7.685000	0.392919
	7.690000	0.554066
	7.695000	0.570510
	7.700000	0.409363
	7.705000	0.396208
	7.710000	0.560644
	7.715000	0.563933
	7.720000	0.409363
	7.725000	0.396208
	7.730000	0.560644
	7.735000	0.567221
	7.740000	0.409363
	7.745000	0.396208
	7.750000	0.560644
	7.755000	0.567221
	7.760000	0.415940
	7.765000	0.399496
	7.770000	0.557355
	7.775000	0.570510
	7.780000	0.409363
	7.785000	0.406074
	7.790000	0.563933
	7.795000	0.573799
	7.800000	0.415940
	7.805000	0.406074
	7.810000	0.560644
	7.815000	0.573799
	7.820000	0.415940
	7.825000	0.402785
	7.830000	0.563933
	7.835000	0.573799
	7.840000	0.412651
	7.845000	0.402785
	7.850000	0.567221
	7.855000	0.573799
	7.860000	0.419229
	7.865000	0.409363
	7.870000	0.570510
	7.875000	0.573799
	7.880000	0.419229
	7.885000	0.409363
	7.890000	0.567221
	7.895000	0.577088
	7.900000	0.419229
	7.905000	0.406074
	7.910000	0.567221
	7.915000	0.580376
	7.920000	0.412651
	7.925000	0.406074
	7.930000	0.567221
	7.935000	0.577088
	7.940000	0.415940
	7.945000	0.409363
	7.950000	0.567221
	7.955000	0.573799
	7.960000	0.412651
	7.965000	0.412651
	7.970000	0.567221
	7.975000	0.577088
	7.980000	0.415940
	7.985000	0.412651
	7.990000	0.567221
	7.995000	0.573799
	8.000000	0.419229
	8.005000	0.409363
	8.010000	0.567221
	8.015000	0.570510
	8.020000	0.412651
	8.025000	0.406074
	8.030000	0.567221
	8.035000	0.573799
	8.040000	0.415940
	8.045000	0.409363
	8.050000	0.570510
	8.055000	0.567221
	8.060000	0.409363
	8.065000	0.406074
	8.070000	0.563933
	8.075000	0.563933
	8.080000	0.406074
	8.085000	0.406074
	8.090000	0.567221
	8.095000	0.567221
	8.100000	0.409363
	8.105000	0.406074
	8.110000	0.563933
	8.115000	0.567221
	8.120000	0.406074
	8.125000	0.406074
	8.130000	0.567221
	8.135000	0.567221
	8.140000	0.406074
	8.145000	0.402785
	8.150000	0.570510
	8.155000	0.563933
	8.160000	0.402785
	8.165000	0.402785
	8.170000	0.563933
	8.175000	0.560644
	8.180000	0.402785
	8.185000	0.402785
	8.190000	0.563933
	8.195000	0.563933
	8.200000	0.396208
	8.205000	0.406074
	8.210000	0.563933
	8.215000	0.563933
	8.220000	0.402785
	8.225000	0.399496
	8.230000	0.567221
	8.235000	0.560644
	8.240000	0.402785
	8.245000	0.402785
	8.250000	0.567221
	8.255000	0.563933
	8.260000	0.402785
	8.265000	0.409363
	8.270000	0.567221
	8.275000	0.567221
	8.280000	0.402785
	8.285000	0.406074
	8.290000	0.567221
	8.295000	0.563933
	8.300000	0.406074
	8.305000	0.406074
	8.310000	0.563933
	8.315000	0.563933
	8.320000	0.402785
	8.325000	0.409363
	8.330000	0.563933
	8.335000	0.563933
	8.340000	0.396208
	8.345000	0.409363
	8.350000	0.573799
	8.355000	0.560644
	8.360000	0.399496
	8.365000	0.409363
	8.370000	0.563933
	8.375000	0.567221
	8.380000	0.402785
	8.385000	0.409363
	8.390000	0.570510
	8.395000	0.563933
	8.400000	0.402785
	8.405000	0.409363
	8.410000	0.573799
	8.415000	0.560644
	8.420000	0.402785
	8.425000	0.409363
	8.430000	0.570510
	8.435000	0.560644
	8.440000	0.402785
	8.445000	0.409363
	8.450000	0.573799
	8.455000	0.560644
	8.460000	0.399496
	8.465000	0.409363
	8.470000	0.570510
	8.475000	0.557355
	8.480000	0.402785
	8.485000	0.409363
	8.490000	0.567221
	8.495000	0.563933
	8.500000	0.399496
	8.505000	0.415940
	8.510000	0.577088
	8.515000	0.560644
	8.520000	0.406074
	8.525000	0.412651
	8.530000	0.573799
	8.535000	0.563933
	8.540000	0.402785
	8.545000	0.409363
	8.550000	0.570510
	8.555000	0.563933
	8.560000	0.396208
	8.565000	0.409363
	8.570000	0.570510
	8.575000	0.557355
	8.580000	0.399496
	8.585000	0.409363
	8.590000	0.570510
	8.595000	0.557355
	8.600000	0.396208
	8.605000	0.409363
	8.610000	0.567221
	8.615000	0.554066
	8.620000	0.396208
	8.625000	0.412651
	8.630000	0.570510
	8.635000	0.554066
	8.640000	0.396208
	8.645000	0.409363
	8.650000	0.567221
	8.655000	0.544200
	8.660000	0.389630
	8.665000	0.406074
	8.670000	0.557355
	8.675000	0.547489
	8.680000	0.383053
	8.685000	0.392919
	8.690000	0.554066
	8.695000	0.537623
	8.700000	0.376475
	8.705000	0.392919
	8.710000	0.550778
	8.715000	0.527757
	8.720000	0.366609
	8.725000	0.386342
	8.730000	0.540912
	8.735000	0.521179
	8.740000	0.360032
	8.745000	0.379764
	8.750000	0.537623
	8.755000	0.514602
	8.760000	0.360032
	8.765000	0.373187
	8.770000	0.537623
	8.775000	0.514602
	8.780000	0.350166
	8.785000	0.373187
	8.790000	0.537623
	8.795000	0.517891
	8.800000	0.363321
	8.805000	0.386342
	8.810000	0.547489
	8.815000	0.537623
	8.820000	0.379764
	8.825000	0.412651
	8.830000	0.583665
	8.835000	0.573799
	8.840000	0.425806
	8.845000	0.455405
	8.850000	0.632996
	8.855000	0.616552
	8.860000	0.455405
	8.865000	0.478426
	8.870000	0.649439
	8.875000	0.629707
	8.880000	0.465271
	8.885000	0.488292
	8.890000	0.652728
	8.895000	0.632996
	8.900000	0.458694
	8.905000	0.478426
	8.910000	0.646151
	8.915000	0.623130
	8.920000	0.448827
	8.925000	0.471848
	8.930000	0.636285
	8.935000	0.613263
	8.940000	0.442250
	8.945000	0.458694
	8.950000	0.626418
	8.955000	0.603397
	8.960000	0.438961
	8.965000	0.465271
	8.970000	0.626418
	8.975000	0.600109
	8.980000	0.435672
	8.985000	0.458694
	8.990000	0.623130
	8.995000	0.603397
	9.000000	0.435672
	9.005000	0.461982
	9.010000	0.626418
	9.015000	0.603397
	9.020000	0.435672
	9.025000	0.465271
	9.030000	0.629707
	9.035000	0.603397
	9.040000	0.432384
	9.045000	0.458694
	9.050000	0.623130
	9.055000	0.596820
	9.060000	0.432384
	9.065000	0.458694
	9.070000	0.616552
	9.075000	0.590242
	9.080000	0.425806
	9.085000	0.452116
	9.090000	0.616552
	9.095000	0.590242
	9.100000	0.415940
	9.105000	0.445539
	9.110000	0.609975
	9.115000	0.580376
	9.120000	0.412651
	9.125000	0.442250
	9.130000	0.609975
	9.135000	0.577088
	9.140000	0.409363
	9.145000	0.435672
	9.150000	0.606686
	9.155000	0.570510
	9.160000	0.406074
	9.165000	0.435672
	9.170000	0.596820
	9.175000	0.567221
	9.180000	0.399496
	9.185000	0.429095
	9.190000	0.593531
	9.195000	0.557355
	9.200000	0.389630
	9.205000	0.409363
	9.210000	0.567221
	9.215000	0.527757
	9.220000	0.356743
	9.225000	0.383053
	9.230000	0.540912
	9.235000	0.508024
	9.240000	0.340299
	9.245000	0.369898
	9.250000	0.521179
	9.255000	0.485003
	9.260000	0.320567
	9.265000	0.353454
	9.270000	0.514602
	9.275000	0.475137
	9.280000	0.310701
	9.285000	0.346877
	9.290000	0.501447
	9.295000	0.461982
	9.300000	0.300835
	9.305000	0.333722
	9.310000	0.491581
	9.315000	0.455405
	9.320000	0.294257
	9.325000	0.330433
	9.330000	0.485003
	9.335000	0.448827
	9.340000	0.287680
	9.345000	0.320567
	9.350000	0.481715
	9.355000	0.435672
	9.360000	0.284391
	9.365000	0.317278
	9.370000	0.475137
	9.375000	0.435672
	9.380000	0.281102
	9.385000	0.317278
	9.390000	0.471848
	9.395000	0.435672
	9.400000	0.274525
	9.405000	0.310701
	9.410000	0.471848
	9.415000	0.435672
	9.420000	0.277814
	9.425000	0.310701
	9.430000	0.471848
	9.435000	0.425806
	9.440000	0.271236
	9.445000	0.317278
	9.450000	0.468560
	9.455000	0.432384
	9.460000	0.274525
	9.465000	0.313990
	9.470000	0.471848
	9.475000	0.432384
	9.480000	0.274525
	9.485000	0.304124
	9.490000	0.465271
	9.495000	0.429095
	9.500000	0.267948
	9.505000	0.310701
	9.510000	0.465271
	9.515000	0.425806
	9.520000	0.264659
	9.525000	0.310701
	9.530000	0.465271
	9.535000	0.422518
	9.540000	0.271236
	9.545000	0.310701
	9.550000	0.465271
	9.555000	0.422518
	9.560000	0.267948
	9.565000	0.310701
	9.570000	0.468560
	9.575000	0.429095
	9.580000	0.274525
	9.585000	0.320567
	9.590000	0.475137
	9.595000	0.429095
	9.600000	0.277814
	9.605000	0.320567
	9.610000	0.481715
	9.615000	0.435672
	9.620000	0.284391
	9.625000	0.327145
	9.630000	0.485003
	9.635000	0.435672
	9.640000	0.284391
	9.645000	0.333722
	9.650000	0.488292
	9.655000	0.438961
	9.660000	0.290969
	9.665000	0.333722
	9.670000	0.488292
	9.675000	0.445539
	9.680000	0.290969
	9.685000	0.340299
	9.690000	0.491581
	9.695000	0.445539
	9.700000	0.294257
	9.705000	0.340299
	9.710000	0.494869
	9.715000	0.452116
	9.720000	0.294257
	9.725000	0.343588
	9.730000	0.491581
	9.735000	0.448827
	9.740000	0.290969
	9.745000	0.346877
	9.750000	0.494869
	9.755000	0.455405
	9.760000	0.297546
	9.765000	0.346877
	9.770000	0.498158
	9.775000	0.452116
	9.780000	0.297546
	9.785000	0.343588
	9.790000	0.498158
	9.795000	0.445539
	9.800000	0.294257
	9.805000	0.343588
	9.810000	0.498158
	9.815000	0.445539
	9.820000	0.290969
	9.825000	0.340299
	9.830000	0.501447
	9.835000	0.445539
	9.840000	0.290969
	9.845000	0.343588
	9.850000	0.498158
	9.855000	0.442250
	9.860000	0.290969
	9.865000	0.340299
	9.870000	0.491581
	9.875000	0.438961
	9.880000	0.284391
	9.885000	0.333722
	9.890000	0.485003
	9.895000	0.432384
	9.900000	0.287680
	9.905000	0.333722
	9.910000	0.485003
	9.915000	0.435672
	9.920000	0.281102
	9.925000	0.337011
	9.930000	0.488292
	9.935000	0.432384
	9.940000	0.277814
	9.945000	0.340299
	9.950000	0.488292
	9.955000	0.429095
	9.960000	0.281102
	9.965000	0.340299
	9.970000	0.485003
	9.975000	0.438961
	9.980000	0.284391
	9.985000	0.340299
	9.990000	0.491581
	9.995000	0.435672
	10.000000	0.287680
	10.005000	0.340299
	10.010000	0.488292
	10.015000	0.435672
	10.020000	0.277814
	10.025000	0.337011
	10.030000	0.488292
	10.035000	0.432384
	10.040000	0.277814
	10.045000	0.340299
	10.050000	0.488292
	10.055000	0.432384
	10.060000	0.281102
	10.065000	0.337011
	10.070000	0.488292
	10.075000	0.432384
	10.080000	0.287680
	10.085000	0.340299
	10.090000	0.488292
	10.095000	0.425806
	10.100000	0.284391
	10.105000	0.340299
	10.110000	0.488292
	10.115000	0.425806
	10.120000	0.281102
	10.125000	0.340299
	10.130000	0.488292
	10.135000	0.432384
	10.140000	0.277814
	10.145000	0.337011
	10.150000	0.491581
	10.155000	0.429095
	10.160000	0.277814
	10.165000	0.340299
	10.170000	0.488292
	10.175000	0.425806
	10.180000	0.274525
	10.185000	0.340299
	10.190000	0.485003
	10.195000	0.425806
	10.200000	0.274525
	10.205000	0.340299
	10.210000	0.488292
	10.215000	0.419229
	10.220000	0.277814
	10.225000	0.340299
	10.230000	0.485003
	10.235000	0.419229
	10.240000	0.274525
	10.245000	0.340299
	10.250000	0.491581
	10.255000	0.425806
	10.260000	0.281102
	10.265000	0.343588
	10.270000	0.491581
	10.275000	0.425806
	10.280000	0.277814
	10.285000	0.346877
	10.290000	0.488292
	10.295000	0.422518
	10.300000	0.281102
	10.305000	0.346877
	10.310000	0.491581
	10.315000	0.425806
	10.320000	0.284391
	10.325000	0.343588
	10.330000	0.491581
	10.335000	0.429095
	10.340000	0.284391
	10.345000	0.350166
	10.350000	0.491581
	10.355000	0.432384
	10.360000	0.284391
	10.365000	0.353454
	10.370000	0.498158
	10.375000	0.432384
	10.380000	0.284391
	10.385000	0.356743
	10.390000	0.501447
	10.395000	0.432384
	10.400000	0.287680
	10.405000	0.353454
	10.410000	0.498158
	10.415000	0.432384
	10.420000	0.287680
	10.425000	0.356743
	10.430000	0.501447
	10.435000	0.432384
	10.440000	0.287680
	10.445000	0.360032
	10.450000	0.504736
	10.455000	0.435672
	10.460000	0.287680
	10.465000	0.356743
	10.470000	0.498158
	10.475000	0.429095
	10.480000	0.287680
	10.485000	0.356743
	10.490000	0.498158
	10.495000	0.429095
	10.500000	0.287680
	10.505000	0.363321
	10.510000	0.504736
	10.515000	0.429095
	10.520000	0.290969
	10.525000	0.360032
	10.530000	0.501447
	10.535000	0.432384
	10.540000	0.287680
	10.545000	0.360032
	10.550000	0.498158
	10.555000	0.425806
	10.560000	0.284391
	10.565000	0.350166
	10.570000	0.498158
	10.575000	0.425806
	10.580000	0.284391
	10.585000	0.356743
	10.590000	0.501447
	10.595000	0.422518
	10.600000	0.281102
	10.605000	0.356743
	10.610000	0.498158
	10.615000	0.422518
	10.620000	0.281102
	10.625000	0.356743
	10.630000	0.491581
	10.635000	0.419229
	10.640000	0.281102
	10.645000	0.353454
	10.650000	0.494869
	10.655000	0.419229
	10.660000	0.284391
	10.665000	0.353454
	10.670000	0.494869
	10.675000	0.419229
	10.680000	0.277814
	10.685000	0.353454
	10.690000	0.494869
	10.695000	0.415940
	10.700000	0.281102
	10.705000	0.353454
	10.710000	0.491581
	10.715000	0.419229
	10.720000	0.277814
	10.725000	0.350166
	10.730000	0.494869
	10.735000	0.415940
	10.740000	0.277814
	10.745000	0.356743
	10.750000	0.488292
	10.755000	0.415940
	10.760000	0.274525
	10.765000	0.353454
	10.770000	0.494869
	10.775000	0.419229
	10.780000	0.274525
	10.785000	0.356743
	10.790000	0.498158
	10.795000	0.412651
	10.800000	0.277814
	10.805000	0.360032
	10.810000	0.494869
	10.815000	0.415940
	10.820000	0.277814
	10.825000	0.360032
	10.830000	0.488292
	10.835000	0.412651
	10.840000	0.274525
	10.845000	0.350166
	10.850000	0.498158
	10.855000	0.412651
	10.860000	0.271236
	10.865000	0.353454
	10.870000	0.488292
	10.875000	0.409363
	10.880000	0.271236
	10.885000	0.346877
	10.890000	0.488292
	10.895000	0.409363
	10.900000	0.267948
	10.905000	0.346877
	10.910000	0.491581
	10.915000	0.406074
	10.920000	0.267948
	10.925000	0.350166
	10.930000	0.488292
	10.935000	0.402785
	10.940000	0.271236
	10.945000	0.353454
	10.950000	0.494869
	10.955000	0.409363
	10.960000	0.274525
	10.965000	0.360032
	10.970000	0.494869
	10.975000	0.419229
	10.980000	0.277814
	10.985000	0.369898
	10.990000	0.511313
	10.995000	0.432384
	11.000000	0.300835
	11.005000	0.383053
	11.010000	0.517891
	11.015000	0.438961
	11.020000	0.300835
	11.025000	0.392919
	11.030000	0.531045
	11.035000	0.448827
	11.040000	0.317278
	11.045000	0.409363
	11.050000	0.554066
	11.055000	0.468560
	11.060000	0.333722
	11.065000	0.422518
	11.070000	0.567221
	11.075000	0.485003
	11.080000	0.340299
	11.085000	0.432384
	11.090000	0.580376
	11.095000	0.485003
	11.100000	0.350166
	11.105000	0.438961
	11.110000	0.577088
	11.115000	0.491581
	11.120000	0.353454
	11.125000	0.442250
	11.130000	0.580376
	11.135000	0.488292
	11.140000	0.346877
	11.145000	0.445539
	11.150000	0.577088
	11.155000	0.491581
	11.160000	0.346877
	11.165000	0.432384
	11.170000	0.577088
	11.175000	0.478426
	11.180000	0.340299
	11.185000	0.435672
	11.190000	0.570510
	11.195000	0.478426
	11.200000	0.333722
	11.205000	0.429095
	11.210000	0.567221
	11.215000	0.475137
	11.220000	0.330433
	11.225000	0.425806
	11.230000	0.563933
	11.235000	0.465271
	11.240000	0.323856
	11.245000	0.419229
	11.250000	0.560644
	11.255000	0.465271
	11.260000	0.327145
	11.265000	0.415940
	11.270000	0.554066
	11.275000	0.458694
	11.280000	0.320567
	11.285000	0.412651
	11.290000	0.550778
	11.295000	0.448827
	11.300000	0.313990
	11.305000	0.415940
	11.310000	0.547489
	11.315000	0.455405
	11.320000	0.310701
	11.325000	0.409363
	11.330000	0.550778
	11.335000	0.448827
	11.340000	0.310701
	11.345000	0.406074
	11.350000	0.547489
	11.355000	0.442250
	11.360000	0.307412
	11.365000	0.409363
	11.370000	0.540912
	11.375000	0.438961
	11.380000	0.304124
	11.385000	0.406074
	11.390000	0.537623
	11.395000	0.438961
	11.400000	0.307412
	11.405000	0.399496
	11.410000	0.537623
	11.415000	0.438961
	11.420000	0.297546
	11.425000	0.399496
	11.430000	0.531045
	11.435000	0.432384
	11.440000	0.294257
	11.445000	0.392919
	11.450000	0.527757
	11.455000	0.422518
	11.460000	0.287680
	11.465000	0.379764
	11.470000	0.511313
	11.475000	0.406074
	11.480000	0.271236
	11.485000	0.356743
	11.490000	0.481715
	11.495000	0.369898
	11.500000	0.235060
	11.505000	0.327145
	11.510000	0.448827
	11.515000	0.346877
	11.520000	0.212039
	11.525000	0.304124
	11.530000	0.432384
	11.535000	0.327145
	11.540000	0.198884
	11.545000	0.294257
	11.550000	0.419229
	11.555000	0.320567
	11.560000	0.185730
	11.565000	0.287680
	11.570000	0.409363
	11.575000	0.304124
	11.580000	0.182441
	11.585000	0.284391
	11.590000	0.402785
	11.595000	0.304124
	11.600000	0.182441
	11.605000	0.281102
	11.610000	0.406074
	11.615000	0.307412
	11.620000	0.182441
	11.625000	0.284391
	11.630000	0.409363
	11.635000	0.300835
	11.640000	0.182441
	11.645000	0.284391
	11.650000	0.409363
	11.655000	0.307412
	11.660000	0.182441
	11.665000	0.287680
	11.670000	0.406074
	11.675000	0.304124
	11.680000	0.182441
	11.685000	0.287680
	11.690000	0.409363
	11.695000	0.310701
	11.700000	0.185730
	11.705000	0.287680
	11.710000	0.412651
	11.715000	0.310701
	11.720000	0.185730
	11.725000	0.287680
	11.730000	0.409363
	11.735000	0.313990
	11.740000	0.189018
	11.745000	0.287680
	11.750000	0.412651
	11.755000	0.304124
	11.760000	0.189018
	11.765000	0.290969
	11.770000	0.412651
	11.775000	0.307412
	11.780000	0.189018
	11.785000	0.290969
	11.790000	0.412651
	11.795000	0.310701
	11.800000	0.189018
	11.805000	0.294257
	11.810000	0.419229
	11.815000	0.313990
	11.820000	0.195596
	11.825000	0.297546
	11.830000	0.415940
	11.835000	0.310701
	11.840000	0.198884
	11.845000	0.304124
	11.850000	0.422518
	11.855000	0.313990
	11.860000	0.195596
	11.865000	0.307412
	11.870000	0.422518
	11.875000	0.317278
	11.880000	0.198884
	11.885000	0.304124
	11.890000	0.429095
	11.895000	0.323856
	11.900000	0.205462
	11.905000	0.313990
	11.910000	0.435672
	11.915000	0.327145
	11.920000	0.212039
	11.925000	0.320567
	11.930000	0.438961
	11.935000	0.323856
	11.940000	0.215328
	11.945000	0.327145
	11.950000	0.442250
	11.955000	0.327145
	11.960000	0.212039
	11.965000	0.320567
	11.970000	0.442250
	11.975000	0.333722
	11.980000	0.221905
	11.985000	0.330433
	11.990000	0.442250
	11.995000	0.337011
	12.000000	0.215328
	12.005000	0.327145
	12.010000	0.442250
	12.015000	0.333722
	12.020000	0.215328
	12.025000	0.333722
	12.030000	0.445539
	12.035000	0.333722
	12.040000	0.218617
	12.045000	0.327145
	12.050000	0.442250
	12.055000	0.330433
	12.060000	0.218617
	12.065000	0.333722
	12.070000	0.442250
	12.075000	0.333722
	12.080000	0.215328
	12.085000	0.327145
	12.090000	0.442250
	12.095000	0.330433
	12.100000	0.215328
	12.105000	0.330433
	12.110000	0.442250
	12.115000	0.327145
	12.120000	0.215328
	12.125000	0.330433
	12.130000	0.442250
	12.135000	0.330433
	12.140000	0.221905
	12.145000	0.330433
	12.150000	0.445539
	12.155000	0.330433
	12.160000	0.215328
	12.165000	0.330433
	12.170000	0.442250
	12.175000	0.333722
	12.180000	0.221905
	12.185000	0.333722
	12.190000	0.445539
	12.195000	0.330433
	12.200000	0.225194
	12.205000	0.340299
	12.210000	0.448827
	12.215000	0.330433
	12.220000	0.228483
	12.225000	0.343588
	12.230000	0.448827
	12.235000	0.330433
	12.240000	0.221905
	12.245000	0.340299
	12.250000	0.448827
	12.255000	0.333722
	12.260000	0.225194
	12.265000	0.340299
	12.270000	0.452116
	12.275000	0.333722
	12.280000	0.228483
	12.285000	0.340299
	12.290000	0.448827
	12.295000	0.333722
	12.300000	0.228483
	12.305000	0.343588
	12.310000	0.452116
	12.315000	0.330433
	12.320000	0.225194
	12.325000	0.343588
	12.330000	0.452116
	12.335000	0.330433
	12.340000	0.228483
	12.345000	0.343588
	12.350000	0.455405
	12.355000	0.333722
	12.360000	0.225194
	12.365000	0.346877
	12.370000	0.455405
	12.375000	0.333722
	12.380000	0.225194
	12.385000	0.346877
	12.390000	0.452116
	12.395000	0.333722
	12.400000	0.225194
	12.405000	0.343588
	12.410000	0.455405
	12.415000	0.333722
	12.420000	0.228483
	12.425000	0.346877
	12.430000	0.455405
	12.435000	0.333722
	12.440000	0.225194
	12.445000	0.346877
	12.450000	0.452116
	12.455000	0.330433
	12.460000	0.225194
	12.465000	0.350166
	12.470000	0.448827
	12.475000	0.327145
	12.480000	0.225194
	12.485000	0.346877
	12.490000	0.452116
	12.495000	0.330433
	12.500000	0.225194
	12.505000	0.346877
	12.510000	0.448827
	12.515000	0.327145
	12.520000	0.228483
	12.525000	0.353454
	12.530000	0.452116
	12.535000	0.330433
	12.540000	0.235060
	12.545000	0.353454
	12.550000	0.455405
	12.555000	0.333722
	12.560000	0.228483
	12.565000	0.350166
	12.570000	0.458694
	12.575000	0.333722
	12.580000	0.235060
	12.585000	0.356743
	12.590000	0.455405
	12.595000	0.333722
	12.600000	0.235060
	12.605000	0.356743
	12.610000	0.461982
	12.615000	0.337011
	12.620000	0.231772
	12.625000	0.360032
	12.630000	0.461982
	12.635000	0.340299
	12.640000	0.241638
	12.645000	0.360032
	12.650000	0.461982
	12.655000	0.337011
	12.660000	0.238349
	12.665000	0.366609
	12.670000	0.465271
	12.675000	0.340299
	12.680000	0.241638
	12.685000	0.363321
	12.690000	0.465271
	12.695000	0.340299
	12.700000	0.241638
	12.705000	0.363321
	12.710000	0.468560
	12.715000	0.340299
	12.720000	0.241638
	12.725000	0.363321
	12.730000	0.461982
	12.735000	0.337011
	12.740000	0.241638
	12.745000	0.366609
	12.750000	0.475137
	12.755000	0.343588
	12.760000	0.241638
	12.765000	0.366609
	12.770000	0.468560
	12.775000	0.340299
	12.780000	0.241638
	12.785000	0.366609
	12.790000	0.465271
	12.795000	0.337011
	12.800000	0.241638
	12.805000	0.366609
	12.810000	0.461982
	12.815000	0.337011
	12.820000	0.248215
	12.825000	0.366609
	12.830000	0.465271
	12.835000	0.337011
	12.840000	0.241638
	12.845000	0.369898
	12.850000	0.471848
	12.855000	0.340299
	12.860000	0.244927
	12.865000	0.373187
	12.870000	0.461982
	12.875000	0.343588
	12.880000	0.244927
	12.885000	0.369898
	12.890000	0.465271
	12.895000	0.340299
	12.900000	0.244927
	12.905000	0.369898
	12.910000	0.471848
	12.915000	0.340299
	12.920000	0.248215
	12.925000	0.379764
	12.930000	0.468560
	12.935000	0.340299
	12.940000	0.244927
	12.945000	0.373187
	12.950000	0.468560
	12.955000	0.343588
	12.960000	0.248215
	12.965000	0.373187
	12.970000	0.468560
	12.975000	0.333722
	12.980000	0.248215
	12.985000	0.373187
	12.990000	0.468560
	12.995000	0.337011
	13.000000	0.248215
	13.005000	0.376475
	13.010000	0.468560
	13.015000	0.333722
	13.020000	0.238349
	13.025000	0.373187
	13.030000	0.461982
	13.035000	0.330433
	13.040000	0.241638
	13.045000	0.373187
	13.050000	0.461982
	13.055000	0.333722
	13.060000	0.244927
	13.065000	0.369898
	13.070000	0.458694
	13.075000	0.327145
	13.080000	0.238349
	13.085000	0.373187
	13.090000	0.461982
	13.095000	0.327145
	13.100000	0.241638
	13.105000	0.373187
	13.110000	0.458694
	13.115000	0.330433
	13.120000	0.238349
	13.125000	0.373187
	13.130000	0.465271
	13.135000	0.327145
	13.140000	0.238349
	13.145000	0.376475
	13.150000	0.461982
	13.155000	0.327145
	13.160000	0.241638
	13.165000	0.373187
	13.170000	0.465271
	13.175000	0.323856
	13.180000	0.238349
	13.185000	0.376475
	13.190000	0.465271
	13.195000	0.327145
	13.200000	0.241638
	13.205000	0.379764
	13.210000	0.461982
	13.215000	0.330433
	13.220000	0.241638
	13.225000	0.379764
	13.230000	0.468560
	13.235000	0.327145
	13.240000	0.241638
	13.245000	0.379764
	13.250000	0.465271
	13.255000	0.330433
	13.260000	0.244927
	13.265000	0.379764
	13.270000	0.465271
	13.275000	0.330433
	13.280000	0.241638
	13.285000	0.383053
	13.290000	0.468560
	13.295000	0.333722
	13.300000	0.251504
	13.305000	0.383053
	13.310000	0.468560
	13.315000	0.327145
	13.320000	0.248215
	13.325000	0.386342
	13.330000	0.465271
	13.335000	0.327145
	13.340000	0.248215
	13.345000	0.389630
	13.350000	0.475137
	13.355000	0.330433
	13.360000	0.248215
	13.365000	0.386342
	13.370000	0.475137
	13.375000	0.340299
	13.380000	0.261370
	13.385000	0.399496
	13.390000	0.488292
	13.395000	0.356743
	13.400000	0.271236
	13.405000	0.429095
	13.410000	0.517891
	13.415000	0.389630
	13.420000	0.310701
	13.425000	0.461982
	13.430000	0.550778
	13.435000	0.412651
	13.440000	0.330433
	13.445000	0.475137
	13.450000	0.560644
	13.455000	0.422518
	13.460000	0.333722
	13.465000	0.478426
	13.470000	0.563933
	13.475000	0.419229
	13.480000	0.337011
	13.485000	0.478426
	13.490000	0.563933
	13.495000	0.415940
	13.500000	0.330433
	13.505000	0.475137
	13.510000	0.563933
	13.515000	0.419229
	13.520000	0.330433
	13.525000	0.475137
	13.530000	0.554066
	13.535000	0.412651
	13.540000	0.327145
	13.545000	0.475137
	13.550000	0.557355
	13.555000	0.409363
	13.560000	0.320567
	13.565000	0.465271
	13.570000	0.550778
	13.575000	0.402785
	13.580000	0.323856
	13.585000	0.468560
	13.590000	0.550778
	13.595000	0.402785
	13.600000	0.317278
	13.605000	0.465271
	13.610000	0.544200
	13.615000	0.399496
	13.620000	0.317278
	13.625000	0.461982
	13.630000	0.544200
	13.635000	0.392919
	13.640000	0.310701
	13.645000	0.458694
	13.650000	0.537623
	13.655000	0.383053
	13.660000	0.300835
	13.665000	0.452116
	13.670000	0.524468
	13.675000	0.379764
	13.680000	0.297546
	13.685000	0.442250
	13.690000	0.524468
	13.695000	0.373187
	13.700000	0.300835
	13.705000	0.445539
	13.710000	0.521179
	13.715000	0.369898
	13.720000	0.294257
	13.725000	0.438961
	13.730000	0.521179
	13.735000	0.366609
	13.740000	0.294257
	13.745000	0.438961
	13.750000	0.514602
	13.755000	0.363321
	13.760000	0.290969
	13.765000	0.432384
	13.770000	0.508024
	13.775000	0.356743
	13.780000	0.277814
	13.785000	0.422518
	13.790000	0.498158
	13.795000	0.343588
	13.800000	0.264659
	13.805000	0.412651
	13.810000	0.485003
	13.815000	0.330433
	13.820000	0.251504
	13.825000	0.396208
	13.830000	0.458694
	13.835000	0.304124
	13.840000	0.221905
	13.845000	0.353454
	13.850000	0.419229
	13.855000	0.261370
	13.860000	0.182441
	13.865000	0.320567
	13.870000	0.392919
	13.875000	0.241638
	13.880000	0.162708
	13.885000	0.304124
	13.890000	0.373187
	13.895000	0.218617
	13.900000	0.152842
	13.905000	0.294257
	13.910000	0.360032
	13.915000	0.218617
	13.920000	0.139687
	13.925000	0.290969
	13.930000	0.356743
	13.935000	0.208751
	13.940000	0.142976
	13.945000	0.287680
	13.950000	0.353454
	13.955000	0.208751
	13.960000	0.146265
	13.965000	0.290969
	13.970000	0.356743
	13.975000	0.208751
	13.980000	0.146265
	13.985000	0.290969
	13.990000	0.356743
	13.995000	0.212039
	14.000000	0.146265
	14.005000	0.294257
	14.010000	0.356743
	14.015000	0.215328
	14.020000	0.146265
	14.025000	0.290969
	14.030000	0.360032
	14.035000	0.208751
	14.040000	0.142976
	14.045000	0.294257
	14.050000	0.356743
	14.055000	0.212039
	14.060000	0.146265
	14.065000	0.294257
	14.070000	0.356743
	14.075000	0.208751
	14.080000	0.149554
	14.085000	0.290969
	14.090000	0.356743
	14.095000	0.205462
	14.100000	0.142976
	14.105000	0.287680
	14.110000	0.353454
	14.115000	0.205462
	14.120000	0.142976
	14.125000	0.290969
	14.130000	0.353454
	14.135000	0.205462
	14.140000	0.146265
	14.145000	0.294257
	14.150000	0.353454
	14.155000	0.208751
	14.160000	0.149554
	14.165000	0.297546
	14.170000	0.360032
	14.175000	0.212039
	14.180000	0.152842
	14.185000	0.307412
	14.190000	0.366609
	14.195000	0.221905
	14.200000	0.165997
	14.205000	0.313990
	14.210000	0.373187
	14.215000	0.228483
	14.220000	0.172575
	14.225000	0.320567
	14.230000	0.383053
	14.235000	0.235060
	14.240000	0.175863
	14.245000	0.330433
	14.250000	0.386342
	14.255000	0.235060
	14.260000	0.182441
	14.265000	0.330433
	14.270000	0.383053
	14.275000	0.235060
	14.280000	0.182441
	14.285000	0.337011
	14.290000	0.392919
	14.295000	0.235060
	14.300000	0.179152
	14.305000	0.330433
	14.310000	0.389630
	14.315000	0.238349
	14.320000	0.192307
	14.325000	0.333722
	14.330000	0.392919
	14.335000	0.248215
	14.340000	0.192307
	14.345000	0.343588
	14.350000	0.396208
	14.355000	0.248215
	14.360000	0.195596
	14.365000	0.350166
	14.370000	0.402785
	14.375000	0.254793
	14.380000	0.202173
	14.385000	0.350166
	14.390000	0.406074
	14.395000	0.254793
	14.400000	0.198884
	14.405000	0.353454
	14.410000	0.406074
	14.415000	0.254793
	14.420000	0.205462
	14.425000	0.353454
	14.430000	0.409363
	14.435000	0.258081
	14.440000	0.208751
	14.445000	0.360032
	14.450000	0.409363
	14.455000	0.261370
	14.460000	0.205462
	14.465000	0.360032
	14.470000	0.409363
	14.475000	0.258081
	14.480000	0.205462
	14.485000	0.353454
	14.490000	0.406074
	14.495000	0.251504
	14.500000	0.205462
	14.505000	0.353454
	14.510000	0.402785
	14.515000	0.251504
	14.520000	0.198884
	14.525000	0.350166
	14.530000	0.402785
	14.535000	0.248215
	14.540000	0.195596
	14.545000	0.350166
	14.550000	0.396208
	14.555000	0.238349
	14.560000	0.198884
	14.565000	0.350166
	14.570000	0.396208
	14.575000	0.251504
	14.580000	0.195596
	14.585000	0.350166
	14.590000	0.396208
	14.595000	0.248215
	14.600000	0.202173
	14.605000	0.356743
	14.610000	0.399496
	14.615000	0.248215
	14.620000	0.195596
	14.625000	0.350166
	14.630000	0.399496
	14.635000	0.244927
	14.640000	0.198884
	14.645000	0.350166
	14.650000	0.396208
	14.655000	0.248215
	14.660000	0.198884
	14.665000	0.350166
	14.670000	0.392919
	14.675000	0.241638
	14.680000	0.198884
	14.685000	0.346877
	14.690000	0.392919
	14.695000	0.241638
	14.700000	0.198884
	14.705000	0.350166
	14.710000	0.399496
	14.715000	0.244927
	14.720000	0.202173
	14.725000	0.353454
	14.730000	0.392919
	14.735000	0.244927
	14.740000	0.202173
	14.745000	0.353454
	14.750000	0.392919
	14.755000	0.238349
	14.760000	0.198884
	14.765000	0.353454
	14.770000	0.402785
	14.775000	0.241638
	14.780000	0.205462
	14.785000	0.356743
	14.790000	0.399496
	14.795000	0.241638
	14.800000	0.198884
	14.805000	0.360032
	14.810000	0.399496
	14.815000	0.251504
	14.820000	0.208751
	14.825000	0.363321
	14.830000	0.396208
	14.835000	0.251504
	14.840000	0.208751
	14.845000	0.369898
	14.850000	0.406074
	14.855000	0.251504
	14.860000	0.215328
	14.865000	0.363321
	14.870000	0.406074
	14.875000	0.244927
	14.880000	0.212039
	14.885000	0.363321
	14.890000	0.402785
	14.895000	0.248215
	14.900000	0.215328
	14.905000	0.366609
	14.910000	0.406074
	14.915000	0.254793
	14.920000	0.215328
	14.925000	0.373187
	14.930000	0.409363
	14.935000	0.251504
	14.940000	0.215328
	14.945000	0.373187
	14.950000	0.409363
	14.955000	0.254793
	14.960000	0.218617
	14.965000	0.379764
	14.970000	0.412651
	14.975000	0.258081
	14.980000	0.218617
	14.985000	0.379764
	14.990000	0.415940
	14.995000	0.254793
	15.000000	0.218617
	15.005000	0.379764
	15.010000	0.412651
	15.015000	0.258081
	15.020000	0.225194
	15.025000	0.379764
	15.030000	0.415940
	15.035000	0.258081
	15.040000	0.228483
	15.045000	0.383053
	15.050000	0.419229
	15.055000	0.254793
	15.060000	0.228483
	15.065000	0.386342
	15.070000	0.415940
	15.075000	0.258081
	15.080000	0.228483
	15.085000	0.386342
	15.090000	0.412651
	15.095000	0.258081
	15.100000	0.231772
	15.105000	0.389630
	15.110000	0.409363
	15.115000	0.261370
	15.120000	0.225194
	15.125000	0.383053
	15.130000	0.415940
	15.135000	0.258081
	15.140000	0.228483
	15.145000	0.386342
	15.150000	0.412651
	15.155000	0.254793
	15.160000	0.228483
	15.165000	0.383053
	15.170000	0.415940
	15.175000	0.258081
	15.180000	0.228483
	15.185000	0.383053
	15.190000	0.415940
	15.195000	0.258081
	15.200000	0.225194
	15.205000	0.383053
	15.210000	0.409363
	15.215000	0.258081
	15.220000	0.225194
	15.225000	0.383053
	15.230000	0.406074
	15.235000	0.248215
	15.240000	0.225194
	15.245000	0.379764
	15.250000	0.409363
	15.255000	0.248215
	15.260000	0.225194
	15.265000	0.379764
	15.270000	0.409363
	15.275000	0.248215
	15.280000	0.228483
	15.285000	0.379764
	15.290000	0.409363
	15.295000	0.251504
	15.300000	0.225194
	15.305000	0.386342
	15.310000	0.406074
	15.315000	0.248215
	15.320000	0.225194
	15.325000	0.379764
	15.330000	0.409363
	15.335000	0.248215
	15.340000	0.221905
	15.345000	0.383053
	15.350000	0.409363
	15.355000	0.244927
	15.360000	0.218617
	15.365000	0.383053
	15.370000	0.402785
	15.375000	0.244927
	15.380000	0.228483
	15.385000	0.386342
	15.390000	0.406074
	15.395000	0.244927
	15.400000	0.221905
	15.405000	0.383053
	15.410000	0.406074
	15.415000	0.244927
	15.420000	0.221905
	15.425000	0.383053
	15.430000	0.402785
	15.435000	0.238349
	15.440000	0.225194
	15.445000	0.379764
	15.450000	0.399496
	15.455000	0.238349
	15.460000	0.215328
	15.465000	0.379764
	15.470000	0.396208
	15.475000	0.238349
	15.480000	0.215328
	15.485000	0.376475
	15.490000	0.396208
	15.495000	0.235060
	15.500000	0.212039
	15.505000	0.373187
	15.510000	0.392919
	15.515000	0.228483
	15.520000	0.212039
	15.525000	0.373187
	15.530000	0.396208
	15.535000	0.231772
	15.540000	0.215328
	15.545000	0.373187
	15.550000	0.396208
	15.555000	0.231772
	15.560000	0.215328
	15.565000	0.369898
	15.570000	0.392919
	15.575000	0.231772
	15.580000	0.215328
	15.585000	0.376475
	15.590000	0.396208
	15.595000	0.228483
	15.600000	0.215328
	15.605000	0.379764
	15.610000	0.392919
	15.615000	0.231772
	15.620000	0.218617
	15.625000	0.383053
	15.630000	0.396208
	15.635000	0.238349
	15.640000	0.225194
	15.645000	0.376475
	15.650000	0.396208
	15.655000	0.235060
	15.660000	0.221905
	15.665000	0.389630
	15.670000	0.396208
	15.675000	0.235060
	15.680000	0.228483
	15.685000	0.383053
	15.690000	0.399496
	15.695000	0.238349
	15.700000	0.238349
	15.705000	0.399496
	15.710000	0.415940
	15.715000	0.261370
	15.720000	0.264659
	15.725000	0.445539
	15.730000	0.475137
	15.735000	0.320567
	15.740000	0.313990
	15.745000	0.488292
	15.750000	0.501447
	15.755000	0.337011
	15.760000	0.333722
	15.765000	0.498158
	15.770000	0.514602
	15.775000	0.346877
	15.780000	0.337011
	15.785000	0.508024
	15.790000	0.514602
	15.795000	0.346877
	15.800000	0.337011
	15.805000	0.504736
	15.810000	0.511313
	15.815000	0.337011
	15.820000	0.327145
	15.825000	0.494869
	15.830000	0.498158
	15.835000	0.327145
	15.840000	0.323856
	15.845000	0.485003
	15.850000	0.494869
	15.855000	0.330433
	15.860000	0.317278
	15.865000	0.485003
	15.870000	0.494869
	15.875000	0.323856
	15.880000	0.310701
	15.885000	0.481715
	15.890000	0.485003
	15.895000	0.317278
	15.900000	0.307412
	15.905000	0.478426
	15.910000	0.485003
	15.915000	0.313990
	15.920000	0.304124
	15.925000	0.475137
	15.930000	0.475137
	15.935000	0.307412
	15.940000	0.297546
	15.945000	0.465271
	15.950000	0.468560
	15.955000	0.300835
	15.960000	0.294257
	15.965000	0.461982
	15.970000	0.465271
	15.975000	0.297546
	15.980000	0.300835
	15.985000	0.465271
	15.990000	0.465271
	15.995000	0.294257
	16.000000	0.287680
	16.005000	0.458694
	16.010000	0.461982
	16.015000	0.287680
	16.020000	0.284391
	16.025000	0.452116
	16.030000	0.461982
	16.035000	0.290969
	16.040000	0.287680
	16.045000	0.458694
	16.050000	0.458694
	16.055000	0.287680
	16.060000	0.284391
	16.065000	0.455405
	16.070000	0.461982
	16.075000	0.287680
	16.080000	0.287680
	16.085000	0.455405
	16.090000	0.458694
	16.095000	0.284391
	16.100000	0.281102
	16.105000	0.461982
	16.110000	0.455405
	16.115000	0.287680
	16.120000	0.287680
	16.125000	0.458694
	16.130000	0.455405
	16.135000	0.281102
	16.140000	0.284391
	16.145000	0.452116
	16.150000	0.452116
	16.155000	0.281102
	16.160000	0.277814
	16.165000	0.452116
	16.170000	0.448827
	16.175000	0.281102
	16.180000	0.277814
	16.185000	0.452116
	16.190000	0.442250
	16.195000	0.281102
	16.200000	0.277814
	16.205000	0.448827
	16.210000	0.438961
	16.215000	0.271236
	16.220000	0.274525
	16.225000	0.445539
	16.230000	0.438961
	16.235000	0.264659
	16.240000	0.271236
	16.245000	0.432384
	16.250000	0.429095
	16.255000	0.258081
	16.260000	0.258081
	16.265000	0.429095
	16.270000	0.415940
	16.275000	0.244927
	16.280000	0.244927
	16.285000	0.406074
	16.290000	0.389630
	16.295000	0.218617
	16.300000	0.215328
	16.305000	0.373187
	16.310000	0.363321
	16.315000	0.189018
	16.320000	0.189018
	16.325000	0.353454
	16.330000	0.343588
	16.335000	0.172575
	16.340000	0.185730
	16.345000	0.346877
	16.350000	0.333722
	16.355000	0.165997
	16.360000	0.175863
	16.365000	0.343588
	16.370000	0.330433
	16.375000	0.169286
	16.380000	0.172575
	16.385000	0.343588
	16.390000	0.327145
	16.395000	0.162708
	16.400000	0.165997
	16.405000	0.333722
	16.410000	0.320567
	16.415000	0.159420
	16.420000	0.169286
	16.425000	0.330433
	16.430000	0.317278
	16.435000	0.159420
	16.440000	0.162708
	16.445000	0.330433
	16.450000	0.317278
	16.455000	0.152842
	16.460000	0.169286
	16.465000	0.330433
	16.470000	0.313990
	16.475000	0.146265
	16.480000	0.162708
	16.485000	0.320567
	16.490000	0.307412
	16.495000	0.149554
	16.500000	0.156131
	16.505000	0.320567
	16.510000	0.304124
	16.515000	0.139687
	16.520000	0.159420
	16.525000	0.313990
	16.530000	0.304124
	16.535000	0.139687
	16.540000	0.159420
	16.545000	0.317278
	16.550000	0.297546
	16.555000	0.139687
	16.560000	0.156131
	16.565000	0.313990
	16.570000	0.294257
	16.575000	0.136399
	16.580000	0.152842
	16.585000	0.313990
	16.590000	0.300835
	16.595000	0.133110
	16.600000	0.156131
	16.605000	0.317278
	16.610000	0.294257
	16.615000	0.136399
	16.620000	0.156131
	16.625000	0.320567
	16.630000	0.294257
	16.635000	0.136399
	16.640000	0.156131
	16.645000	0.317278
	16.650000	0.300835
	16.655000	0.139687
	16.660000	0.162708
	16.665000	0.313990
	16.670000	0.294257
	16.675000	0.133110
	16.680000	0.165997
	16.685000	0.320567
	16.690000	0.300835
	16.695000	0.142976
	16.700000	0.162708
	16.705000	0.320567
	16.710000	0.300835
	16.715000	0.142976
	16.720000	0.165997
	16.725000	0.327145
	16.730000	0.300835
	16.735000	0.146265
	16.740000	0.172575
	16.745000	0.323856
	16.750000	0.300835
	16.755000	0.142976
	16.760000	0.162708
	16.765000	0.323856
	16.770000	0.300835
	16.775000	0.142976
	16.780000	0.169286
	16.785000	0.327145
	16.790000	0.300835
	16.795000	0.142976
	16.800000	0.172575
	16.805000	0.330433
	16.810000	0.304124
	16.815000	0.146265
	16.820000	0.179152
	16.825000	0.337011
	16.830000	0.310701
	16.835000	0.149554
	16.840000	0.179152
	16.845000	0.333722
	16.850000	0.310701
	16.855000	0.156131
	16.860000	0.182441
	16.865000	0.330433
	16.870000	0.310701
	16.875000	0.152842
	16.880000	0.179152
	16.885000	0.337011
	16.890000	0.313990
	16.895000	0.152842
	16.900000	0.182441
	16.905000	0.340299
	16.910000	0.310701
	16.915000	0.159420
	16.920000	0.192307
	16.925000	0.343588
	16.930000	0.310701
	16.935000	0.162708
	16.940000	0.192307
	16.945000	0.340299
	16.950000	0.317278
	16.955000	0.162708
	16.960000	0.189018
	16.965000	0.346877
	16.970000	0.317278
	16.975000	0.156131
	16.980000	0.192307
	16.985000	0.346877
	16.990000	0.313990
	16.995000	0.152842
	17.000000	0.182441
	17.005000	0.346877
	17.010000	0.307412
	17.015000	0.152842
	17.020000	0.189018
	17.025000	0.343588
	17.030000	0.310701
	17.035000	0.156131
	17.040000	0.192307
	17.045000	0.346877
	17.050000	0.313990
	17.055000	0.156131
	17.060000	0.189018
	17.065000	0.350166
	17.070000	0.317278
	17.075000	0.156131
	17.080000	0.192307
	17.085000	0.346877
	17.090000	0.313990
	17.095000	0.159420
	17.100000	0.189018
	17.105000	0.350166
	17.110000	0.310701
	17.115000	0.162708
	17.120000	0.195596
	17.125000	0.346877
	17.130000	0.317278
	17.135000	0.162708
	17.140000	0.195596
	17.145000	0.346877
	17.150000	0.313990
	17.155000	0.159420
	17.160000	0.198884
	17.165000	0.353454
	17.170000	0.317278
	17.175000	0.159420
	17.180000	0.195596
	17.185000	0.356743
	17.190000	0.313990
	17.195000	0.159420
	17.200000	0.195596
	17.205000	0.353454
	17.210000	0.317278
	17.215000	0.156131
	17.220000	0.195596
	17.225000	0.350166
	17.230000	0.310701
	17.235000	0.162708
	17.240000	0.202173
	17.245000	0.353454
	17.250000	0.317278
	17.255000	0.159420
	17.260000	0.198884
	17.265000	0.356743
	17.270000	0.313990
	17.275000	0.162708
	17.280000	0.198884
	17.285000	0.353454
	17.290000	0.313990
	17.295000	0.159420
	17.300000	0.202173
	17.305000	0.356743
	17.310000	0.310701
	17.315000	0.159420
	17.320000	0.202173
	17.325000	0.360032
	17.330000	0.317278
	17.335000	0.169286
	17.340000	0.205462
	17.345000	0.360032
	17.350000	0.313990
	17.355000	0.159420
	17.360000	0.205462
	17.365000	0.356743
	17.370000	0.313990
	17.375000	0.159420
	17.380000	0.202173
	17.385000	0.363321
	17.390000	0.313990
	17.395000	0.162708
	17.400000	0.205462
	17.405000	0.363321
	17.410000	0.313990
	17.415000	0.159420
	17.420000	0.202173
	17.425000	0.360032
	17.430000	0.317278
	17.435000	0.162708
	17.440000	0.208751
	17.445000	0.363321
	17.450000	0.320567
	17.455000	0.162708
	17.460000	0.208751
	17.465000	0.369898
	17.470000	0.320567
	17.475000	0.172575
	17.480000	0.218617
	17.485000	0.369898
	17.490000	0.320567
	17.495000	0.169286
	17.500000	0.218617
	17.505000	0.369898
	17.510000	0.320567
	17.515000	0.165997
	17.520000	0.221905
	17.525000	0.369898
	17.530000	0.323856
	17.535000	0.169286
	17.540000	0.215328
	17.545000	0.376475
	17.550000	0.323856
	17.555000	0.175863
	17.560000	0.221905
	17.565000	0.376475
	17.570000	0.323856
	17.575000	0.172575
	17.580000	0.218617
	17.585000	0.369898
	17.590000	0.323856
	17.595000	0.172575
	17.600000	0.225194
	17.605000	0.376475
	17.610000	0.317278
	17.615000	0.169286
	17.620000	0.221905
	17.625000	0.369898
	17.630000	0.327145
	17.635000	0.169286
	17.640000	0.218617
	17.645000	0.373187
	17.650000	0.317278
	17.655000	0.169286
	17.660000	0.221905
	17.665000	0.369898
	17.670000	0.313990
	17.675000	0.165997
	17.680000	0.221905
	17.685000	0.369898
	17.690000	0.320567
	17.695000	0.162708
	17.700000	0.221905
	17.705000	0.369898
	17.710000	0.310701
	17.715000	0.169286
	17.720000	0.218617
	17.725000	0.366609
	17.730000	0.310701
	17.735000	0.162708
	17.740000	0.218617
	17.745000	0.366609
	17.750000	0.307412
	17.755000	0.162708
	17.760000	0.218617
	17.765000	0.366609
	17.770000	0.310701
	17.775000	0.159420
	17.780000	0.218617
	17.785000	0.366609
	17.790000	0.310701
	17.795000	0.159420
	17.800000	0.212039
	17.805000	0.366609
	17.810000	0.310701
	17.815000	0.159420
	17.820000	0.215328
	17.825000	0.369898
	17.830000	0.307412
	17.835000	0.162708
	17.840000	0.221905
	17.845000	0.369898
	17.850000	0.310701
	17.855000	0.162708
	17.860000	0.221905
	17.865000	0.373187
	17.870000	0.307412
	17.875000	0.159420
	17.880000	0.221905
	17.885000	0.373187
	17.890000	0.304124
	17.895000	0.165997
	17.900000	0.221905
	17.905000	0.369898
	17.910000	0.313990
	17.915000	0.159420
	17.920000	0.225194
	17.925000	0.369898
	17.930000	0.307412
	17.935000	0.162708
	17.940000	0.221905
	17.945000	0.366609
	17.950000	0.310701
	17.955000	0.156131
	17.960000	0.218617
	17.965000	0.369898
	17.970000	0.307412
	17.975000	0.159420
	17.980000	0.218617
	17.985000	0.363321
	17.990000	0.304124
	17.995000	0.152842
	18.000000	0.215328
	18.005000	0.366609
	18.010000	0.297546
	18.015000	0.149554
	18.020000	0.215328
	18.025000	0.360032
	18.030000	0.294257
	18.035000	0.146265
	18.040000	0.208751
	18.045000	0.360032
	18.050000	0.290969
	18.055000	0.149554
	18.060000	0.215328
	18.065000	0.363321
	18.070000	0.300835
	18.075000	0.152842
	18.080000	0.221905
	18.085000	0.373187
	18.090000	0.307412
	18.095000	0.162708
	18.100000	0.228483
	18.105000	0.383053
	18.110000	0.317278
	18.115000	0.172575
	18.120000	0.238349
	18.125000	0.389630
	18.130000	0.330433
	18.135000	0.175863
	18.140000	0.244927
	18.145000	0.392919
	18.150000	0.320567
	18.155000	0.172575
	18.160000	0.241638
	18.165000	0.386342
	18.170000	0.320567
	18.175000	0.172575
	18.180000	0.238349
	18.185000	0.386342
	18.190000	0.313990
	18.195000	0.169286
	18.200000	0.238349
	18.205000	0.389630
	18.210000	0.313990
	18.215000	0.169286
	18.220000	0.241638
	18.225000	0.389630
	18.230000	0.317278
	18.235000	0.175863
	18.240000	0.238349
	18.245000	0.389630
	18.250000	0.320567
	18.255000	0.169286
	18.260000	0.241638
	18.265000	0.386342
	18.270000	0.313990
	18.275000	0.169286
	18.280000	0.238349
	18.285000	0.383053
	18.290000	0.310701
	18.295000	0.162708
	18.300000	0.238349
	18.305000	0.386342
	18.310000	0.307412
	18.315000	0.156131
	18.320000	0.235060
	18.325000	0.376475
	18.330000	0.304124
	18.335000	0.159420
	18.340000	0.235060
	18.345000	0.379764
	18.350000	0.304124
	18.355000	0.162708
	18.360000	0.235060
	18.365000	0.386342
	18.370000	0.304124
	18.375000	0.156131
	18.380000	0.235060
	18.385000	0.379764
	18.390000	0.307412
	18.395000	0.156131
	18.400000	0.235060
	18.405000	0.379764
	18.410000	0.307412
	18.415000	0.156131
	18.420000	0.235060
	18.425000	0.379764
	18.430000	0.304124
	18.435000	0.159420
	18.440000	0.238349
	18.445000	0.379764
	18.450000	0.300835
	18.455000	0.156131
	18.460000	0.238349
	18.465000	0.383053
	18.470000	0.300835
	18.475000	0.156131
	18.480000	0.235060
	18.485000	0.373187
	18.490000	0.300835
	18.495000	0.156131
	18.500000	0.235060
	18.505000	0.373187
	18.510000	0.294257
	18.515000	0.152842
	18.520000	0.238349
	18.525000	0.373187
	18.530000	0.290969
	18.535000	0.149554
	18.540000	0.231772
	18.545000	0.369898
	18.550000	0.287680
	18.555000	0.146265
	18.560000	0.228483
	18.565000	0.366609
	18.570000	0.284391
	18.575000	0.146265
	18.580000	0.225194
	18.585000	0.363321
	18.590000	0.281102
	18.595000	0.139687
	18.600000	0.221905
	18.605000	0.363321
	18.610000	0.281102
	18.615000	0.139687
	18.620000	0.221905
	18.625000	0.356743
	18.630000	0.277814
	18.635000	0.136399
	18.640000	0.215328
	18.645000	0.356743
	18.650000	0.271236
	18.655000	0.129821
	18.660000	0.212039
	18.665000	0.350166
	18.670000	0.267948
	18.675000	0.129821
	18.680000	0.208751
	18.685000	0.346877
	18.690000	0.258081
	18.695000	0.126533
	18.700000	0.205462
	18.705000	0.343588
	18.710000	0.258081
	18.715000	0.126533
	18.720000	0.208751
	18.725000	0.343588
	18.730000	0.258081
	18.735000	0.126533
	18.740000	0.208751
	18.745000	0.346877
	18.750000	0.254793
	18.755000	0.123244
	18.760000	0.208751
	18.765000	0.343588
	18.770000	0.258081
	18.775000	0.123244
	18.780000	0.208751
	18.785000	0.346877
	18.790000	0.258081
	18.795000	0.123244
	18.800000	0.212039
	18.805000	0.346877
	18.810000	0.261370
	18.815000	0.126533
	18.820000	0.215328
	18.825000	0.353454
	18.830000	0.264659
	18.835000	0.123244
	18.840000	0.218617
	18.845000	0.346877
	18.850000	0.264659
	18.855000	0.129821
	18.860000	0.218617
	18.865000	0.356743
	18.870000	0.264659
	18.875000	0.129821
	18.880000	0.221905
	18.885000	0.356743
	18.890000	0.264659
	18.895000	0.133110
	18.900000	0.218617
	18.905000	0.356743
	18.910000	0.264659
	18.915000	0.133110
	18.920000	0.225194
	18.925000	0.353454
	18.930000	0.264659
	18.935000	0.133110
	18.940000	0.221905
	18.945000	0.353454
	18.950000	0.264659
	18.955000	0.126533
	18.960000	0.221905
	18.965000	0.350166
	18.970000	0.258081
	18.975000	0.123244
	18.980000	0.221905
	18.985000	0.346877
	18.990000	0.254793
	18.995000	0.129821
	19.000000	0.218617
	19.005000	0.350166
	19.010000	0.258081
	19.015000	0.129821
	19.020000	0.218617
	19.025000	0.350166
	19.030000	0.258081
	19.035000	0.129821
	19.040000	0.218617
	19.045000	0.350166
	19.050000	0.254793
	19.055000	0.126533
	19.060000	0.221905
	19.065000	0.350166
	19.070000	0.254793
	19.075000	0.129821
	19.080000	0.218617
	19.085000	0.350166
	19.090000	0.258081
	19.095000	0.129821
	19.100000	0.221905
	19.105000	0.353454
	19.110000	0.258081
	19.115000	0.126533
	19.120000	0.225194
	19.125000	0.360032
	19.130000	0.258081
	19.135000	0.133110
	19.140000	0.225194
	19.145000	0.356743
	19.150000	0.258081
	19.155000	0.133110
	19.160000	0.225194
	19.165000	0.356743
	19.170000	0.258081
	19.175000	0.133110
	19.180000	0.225194
	19.185000	0.360032
	19.190000	0.258081
	19.195000	0.129821
	19.200000	0.235060
	19.205000	0.356743
	19.210000	0.261370
	19.215000	0.133110
	19.220000	0.228483
	19.225000	0.353454
	19.230000	0.258081
	19.235000	0.129821
	19.240000	0.231772
	19.245000	0.356743
	19.250000	0.261370
	19.255000	0.136399
	19.260000	0.228483
	19.265000	0.363321
	19.270000	0.261370
	19.275000	0.129821
	19.280000	0.231772
	19.285000	0.356743
	19.290000	0.254793
	19.295000	0.133110
	19.300000	0.235060
	19.305000	0.356743
	19.310000	0.258081
	19.315000	0.126533
	19.320000	0.235060
	19.325000	0.356743
	19.330000	0.254793
	19.335000	0.126533
	19.340000	0.225194
	19.345000	0.353454
	19.350000	0.258081
	19.355000	0.129821
	19.360000	0.225194
	19.365000	0.353454
	19.370000	0.248215
	19.375000	0.126533
	19.380000	0.228483
	19.385000	0.353454
	19.390000	0.248215
	19.395000	0.126533
	19.400000	0.225194
	19.405000	0.353454
	19.410000	0.248215
	19.415000	0.126533
	19.420000	0.228483
	19.425000	0.350166
	19.430000	0.251504
	19.435000	0.123244
	19.440000	0.231772
	19.445000	0.353454
	19.450000	0.251504
	19.455000	0.126533
	19.460000	0.231772
	19.465000	0.356743
	19.470000	0.254793
	19.475000	0.129821
	19.480000	0.235060
	19.485000	0.353454
	19.490000	0.248215
	19.495000	0.133110
	19.500000	0.235060
	19.505000	0.360032
	19.510000	0.248215
	19.515000	0.129821
	19.520000	0.238349
	19.525000	0.356743
	19.530000	0.251504
	19.535000	0.133110
	19.540000	0.238349
	19.545000	0.363321
	19.550000	0.254793
	19.555000	0.136399
	19.560000	0.238349
	19.565000	0.353454
	19.570000	0.254793
	19.575000	0.136399
	19.580000	0.241638
	19.585000	0.366609
	19.590000	0.258081
	19.595000	0.136399
	19.600000	0.244927
	19.605000	0.363321
	19.610000	0.258081
	19.615000	0.136399
	19.620000	0.244927
	19.625000	0.366609
	19.630000	0.258081
	19.635000	0.142976
	19.640000	0.248215
	19.645000	0.363321
	19.650000	0.258081
	19.655000	0.142976
	19.660000	0.244927
	19.665000	0.366609
	19.670000	0.258081
	19.675000	0.136399
	19.680000	0.248215
	19.685000	0.366609
	19.690000	0.258081
	19.695000	0.142976
	19.700000	0.251504
	19.705000	0.373187
	19.710000	0.258081
	19.715000	0.142976
	19.720000	0.248215
	19.725000	0.369898
	19.730000	0.261370
	19.735000	0.142976
	19.740000	0.251504
	19.745000	0.366609
	19.750000	0.258081
	19.755000	0.142976
	19.760000	0.248215
	19.765000	0.369898
	19.770000	0.258081
	19.775000	0.139687
	19.780000	0.248215
	19.785000	0.366609
	19.790000	0.254793
	19.795000	0.136399
	19.800000	0.251504
	19.805000	0.360032
	19.810000	0.251504
	19.815000	0.142976
	19.820000	0.244927
	19.825000	0.366609
	19.830000	0.254793
	19.835000	0.136399
	19.840000	0.251504
	19.845000	0.360032
	19.850000	0.251504
	19.855000	0.142976
	19.860000	0.251504
	19.865000	0.360032
	19.870000	0.251504
	19.875000	0.133110
	19.880000	0.248215
	19.885000	0.363321
	19.890000	0.254793
	19.895000	0.136399
	19.900000	0.254793
	19.905000	0.366609
	19.910000	0.251504
	19.915000	0.136399
	19.920000	0.254793
	19.925000	0.360032
	19.930000	0.248215
	19.935000	0.139687
	19.940000	0.248215
	19.945000	0.356743
	19.950000	0.244927
	19.955000	0.133110
	19.960000	0.244927
	19.965000	0.360032
	19.970000	0.238349
	19.975000	0.129821
	19.980000	0.244927
	19.985000	0.353454
	19.990000	0.241638
	19.995000	0.126533
	20.000000	0.241638
	20.005000	0.353454
	20.010000	0.241638
	20.015000	0.129821
	20.020000	0.238349
	20.025000	0.356743
	20.030000	0.235060
	20.035000	0.126533
	20.040000	0.241638
	20.045000	0.353454
	20.050000	0.235060
	20.055000	0.129821
	20.060000	0.241638
	20.065000	0.356743
	20.070000	0.238349
	20.075000	0.129821
	20.080000	0.248215
	20.085000	0.353454
	20.090000	0.235060
	20.095000	0.123244
	20.100000	0.241638
	20.105000	0.353454
	20.110000	0.235060
	20.115000	0.129821
	20.120000	0.244927
	20.125000	0.353454
	20.130000	0.238349
	20.135000	0.126533
	20.140000	0.248215
	20.145000	0.360032
	20.150000	0.238349
	20.155000	0.133110
	20.160000	0.248215
	20.165000	0.360032
	20.170000	0.241638
	20.175000	0.126533
	20.180000	0.248215
	20.185000	0.360032
	20.190000	0.238349
	20.195000	0.133110
	20.200000	0.251504
	20.205000	0.356743
	20.210000	0.241638
	20.215000	0.129821
	20.220000	0.251504
	20.225000	0.360032
	20.230000	0.238349
	20.235000	0.133110
	20.240000	0.258081
	20.245000	0.366609
	20.250000	0.241638
	20.255000	0.139687
	20.260000	0.264659
	20.265000	0.379764
	20.270000	0.251504
	20.275000	0.146265
	20.280000	0.271236
	20.285000	0.379764
	20.290000	0.261370
	20.295000	0.156131
	20.300000	0.281102
	20.305000	0.392919
	20.310000	0.264659
	20.315000	0.162708
	20.320000	0.290969
	20.325000	0.396208
	20.330000	0.277814
	20.335000	0.169286
	20.340000	0.300835
	20.345000	0.409363
	20.350000	0.294257
	20.355000	0.189018
	20.360000	0.320567
	20.365000	0.435672
	20.370000	0.310701
	20.375000	0.202173
	20.380000	0.340299
	20.385000	0.445539
	20.390000	0.320567
	20.395000	0.212039
	20.400000	0.340299
	20.405000	0.455405
	20.410000	0.323856
	20.415000	0.215328
	20.420000	0.350166
	20.425000	0.448827
	20.430000	0.323856
	20.435000	0.215328
	20.440000	0.343588
	20.445000	0.448827
	20.450000	0.320567
	20.455000	0.208751
	20.460000	0.340299
	20.465000	0.448827
	20.470000	0.317278
	20.475000	0.205462
	20.480000	0.333722
	20.485000	0.445539
	20.490000	0.307412
	20.495000	0.202173
	20.500000	0.333722
	20.505000	0.442250
	20.510000	0.307412
	20.515000	0.198884
	20.520000	0.327145
	20.525000	0.435672
	20.530000	0.300835
	20.535000	0.198884
	20.540000	0.330433
	20.545000	0.429095
	20.550000	0.304124
	20.555000	0.195596
	20.560000	0.333722
	20.565000	0.435672
	20.570000	0.304124
	20.575000	0.195596
	20.580000	0.327145
	20.585000	0.435672
	20.590000	0.300835
	20.595000	0.198884
	20.600000	0.327145
	20.605000	0.432384
	20.610000	0.297546
	20.615000	0.189018
	20.620000	0.323856
	20.625000	0.429095
	20.630000	0.287680
	20.635000	0.189018
	20.640000	0.317278
	20.645000	0.422518
	20.650000	0.284391
	20.655000	0.182441
	20.660000	0.313990
	20.665000	0.415940
	20.670000	0.281102
	20.675000	0.175863
	20.680000	0.300835
	20.685000	0.402785
	20.690000	0.264659
	20.695000	0.165997
	20.700000	0.294257
	20.705000	0.389630
	20.710000	0.254793
	20.715000	0.146265
	20.720000	0.281102
	20.725000	0.366609
	20.730000	0.221905
	20.735000	0.113378
	20.740000	0.244927
	20.745000	0.327145
	20.750000	0.195596
	20.755000	0.096934
	20.760000	0.221905
	20.765000	0.313990
	20.770000	0.172575
	20.775000	0.077202
	20.780000	0.208751
	20.785000	0.294257
	20.790000	0.162708
	20.795000	0.064047
	20.800000	0.189018
	20.805000	0.287680
	20.810000	0.149554
	20.815000	0.060758
	20.820000	0.185730
	20.825000	0.281102
	20.830000	0.149554
	20.835000	0.050892
	20.840000	0.189018
	20.845000	0.284391
	20.850000	0.146265
	20.855000	0.054181
	20.860000	0.182441
	20.865000	0.277814
	20.870000	0.146265
	20.875000	0.057469
	20.880000	0.192307
	20.885000	0.284391
	20.890000	0.149554
	20.895000	0.060758
	20.900000	0.195596
	20.905000	0.290969
	20.910000	0.152842
	20.915000	0.067335
	20.920000	0.198884
	20.925000	0.287680
	20.930000	0.152842
	20.935000	0.064047
	20.940000	0.198884
	20.945000	0.290969
	20.950000	0.156131
	20.955000	0.067335
	20.960000	0.198884
	20.965000	0.294257
	20.970000	0.156131
	20.975000	0.070624
	20.980000	0.205462
	20.985000	0.290969
	20.990000	0.156131
	20.995000	0.064047
	21.000000	0.205462
	21.005000	0.290969
	21.010000	0.156131
	21.015000	0.067335
	21.020000	0.205462
	21.025000	0.300835
	21.030000	0.159420
	21.035000	0.077202
	21.040000	0.205462
	21.045000	0.297546
	21.050000	0.159420
	21.055000	0.070624
	21.060000	0.215328
	21.065000	0.300835
	21.070000	0.165997
	21.075000	0.073913
	21.080000	0.208751
	21.085000	0.294257
	21.090000	0.159420
	21.095000	0.077202
	21.100000	0.215328
	21.105000	0.297546
	21.110000	0.159420
	21.115000	0.070624
	21.120000	0.208751
	21.125000	0.297546
	21.130000	0.159420
	21.135000	0.073913
	21.140000	0.218617
	21.145000	0.300835
	21.150000	0.156131
	21.155000	0.073913
	21.160000	0.218617
	21.165000	0.294257
	21.170000	0.165997
	21.175000	0.077202
	21.180000	0.215328
	21.185000	0.304124
	21.190000	0.159420
	21.195000	0.080490
	21.200000	0.215328
	21.205000	0.300835
	21.210000	0.162708
	21.215000	0.080490
	21.220000	0.221905
	21.225000	0.300835
	21.230000	0.165997
	21.235000	0.080490
	21.240000	0.218617
	21.245000	0.300835
	21.250000	0.165997
	21.255000	0.087068
	21.260000	0.221905
	21.265000	0.307412
	21.270000	0.165997
	21.275000	0.083779
	21.280000	0.221905
	21.285000	0.300835
	21.290000	0.162708
	21.295000	0.083779
	21.300000	0.221905
	21.305000	0.304124
	21.310000	0.165997
	21.315000	0.080490
	21.320000	0.221905
	21.325000	0.300835
	21.330000	0.162708
	21.335000	0.083779
	21.340000	0.221905
	21.345000	0.300835
	21.350000	0.165997
	21.355000	0.083779
	21.360000	0.225194
	21.365000	0.304124
	21.370000	0.165997
	21.375000	0.090357
	21.380000	0.228483
	21.385000	0.304124
	21.390000	0.165997
	21.395000	0.090357
	21.400000	0.231772
	21.405000	0.307412
	21.410000	0.169286
	21.415000	0.090357
	21.420000	0.231772
	21.425000	0.307412
	21.430000	0.165997
	21.435000	0.093645
	21.440000	0.228483
	21.445000	0.307412
	21.450000	0.165997
	21.455000	0.093645
	21.460000	0.235060
	21.465000	0.313990
	21.470000	0.169286
	21.475000	0.093645
	21.480000	0.238349
	21.485000	0.313990
	21.490000	0.169286
	21.495000	0.096934
	21.500000	0.238349
	21.505000	0.313990
	21.510000	0.172575
	21.515000	0.103511
	21.520000	0.244927
	21.525000	0.317278
	21.530000	0.175863
	21.535000	0.103511
	21.540000	0.244927
	21.545000	0.320567
	21.550000	0.182441
	21.555000	0.103511
	21.560000	0.251504
	21.565000	0.317278
	21.570000	0.175863
	21.575000	0.100223
	21.580000	0.248215
	21.585000	0.320567
	21.590000	0.172575
	21.595000	0.110089
	21.600000	0.248215
	21.605000	0.323856
	21.610000	0.175863
	21.615000	0.103511
	21.620000	0.254793
	21.625000	0.323856
	21.630000	0.175863
	21.635000	0.110089
	21.640000	0.254793
	21.645000	0.323856
	21.650000	0.175863
	21.655000	0.106800
	21.660000	0.251504
	21.665000	0.320567
	21.670000	0.179152
	21.675000	0.106800
	21.680000	0.251504
	21.685000	0.317278
	21.690000	0.172575
	21.695000	0.106800
	21.700000	0.254793
	21.705000	0.317278
	21.710000	0.175863
	21.715000	0.106800
	21.720000	0.254793
	21.725000	0.317278
	21.730000	0.172575
	21.735000	0.106800
	21.740000	0.254793
	21.745000	0.320567
	21.750000	0.175863
	21.755000	0.106800
	21.760000	0.254793
	21.765000	0.320567
	21.770000	0.175863
	21.775000	0.106800
	21.780000	0.251504
	21.785000	0.323856
	21.790000	0.175863
	21.795000	0.106800
	21.800000	0.258081
	21.805000	0.323856
	21.810000	0.179152
	21.815000	0.113378
	21.820000	0.261370
	21.825000	0.327145
	21.830000	0.179152
	21.835000	0.113378
	21.840000	0.261370
	21.845000	0.323856
	21.850000	0.179152
	21.855000	0.119955
	21.860000	0.261370
	21.865000	0.327145
	21.870000	0.179152
	21.875000	0.116666
	21.880000	0.264659
	21.885000	0.327145
	21.890000	0.179152
	21.895000	0.123244
	21.900000	0.264659
	21.905000	0.327145
	21.910000	0.179152
	21.915000	0.119955
	21.920000	0.267948
	21.925000	0.327145
	21.930000	0.182441
	21.935000	0.119955
	21.940000	0.264659
	21.945000	0.330433
	21.950000	0.179152
	21.955000	0.123244
	21.960000	0.267948
	21.965000	0.330433
	21.970000	0.175863
	21.975000	0.116666
	21.980000	0.264659
	21.985000	0.327145
	21.990000	0.179152
	21.995000	0.119955
	22.000000	0.267948
	22.005000	0.330433
	22.010000	0.182441
	22.015000	0.123244
	22.020000	0.267948
	22.025000	0.330433
	22.030000	0.175863
	22.035000	0.123244
	22.040000	0.271236
	22.045000	0.330433
	22.050000	0.182441
	22.055000	0.126533
	22.060000	0.274525
	22.065000	0.330433
	22.070000	0.185730
	22.075000	0.119955
	22.080000	0.281102
	22.085000	0.330433
	22.090000	0.179152
	22.095000	0.126533
	22.100000	0.274525
	22.105000	0.330433
	22.110000	0.179152
	22.115000	0.123244
	22.120000	0.274525
	22.125000	0.333722
	22.130000	0.182441
	22.135000	0.123244
	22.140000	0.281102
	22.145000	0.333722
	22.150000	0.179152
	22.155000	0.126533
	22.160000	0.277814
	22.165000	0.337011
	22.170000	0.182441
	22.175000	0.129821
	22.180000	0.277814
	22.185000	0.333722
	22.190000	0.182441
	22.195000	0.126533
	22.200000	0.281102
	22.205000	0.333722
	22.210000	0.179152
	22.215000	0.129821
	22.220000	0.277814
	22.225000	0.333722
	22.230000	0.182441
	22.235000	0.126533
	22.240000	0.277814
	22.245000	0.330433
	22.250000	0.185730
	22.255000	0.126533
	22.260000	0.277814
	22.265000	0.327145
	22.270000	0.179152
	22.275000	0.126533
	22.280000	0.281102
	22.285000	0.333722
	22.290000	0.182441
	22.295000	0.126533
	22.300000	0.274525
	22.305000	0.333722
	22.310000	0.175863
	22.315000	0.126533
	22.320000	0.281102
	22.325000	0.330433
	22.330000	0.182441
	22.335000	0.126533
	22.340000	0.284391
	22.345000	0.330433
	22.350000	0.179152
	22.355000	0.126533
	22.360000	0.281102
	22.365000	0.330433
	22.370000	0.175863
	22.375000	0.123244
	22.380000	0.281102
	22.385000	0.327145
	22.390000	0.172575
	22.395000	0.126533
	22.400000	0.281102
	22.405000	0.330433
	22.410000	0.179152
	22.415000	0.126533
	22.420000	0.281102
	22.425000	0.327145
	22.430000	0.179152
	22.435000	0.133110
	22.440000	0.281102
	22.445000	0.333722
	22.450000	0.179152
	22.455000	0.126533
	22.460000	0.284391
	22.465000	0.327145
	22.470000	0.175863
	22.475000	0.129821
	22.480000	0.284391
	22.485000	0.333722
	22.490000	0.179152
	22.495000	0.133110
	22.500000	0.284391
	22.505000	0.333722
	22.510000	0.182441
	22.515000	0.136399
	22.520000	0.287680
	22.525000	0.333722
	22.530000	0.175863
	22.535000	0.133110
	22.540000	0.284391
	22.545000	0.330433
	22.550000	0.175863
	22.555000	0.136399
	22.560000	0.287680
	22.565000	0.330433
	22.570000	0.172575
	22.575000	0.126533
	22.580000	0.284391
	22.585000	0.327145
	22.590000	0.179152
	22.595000	0.129821
	22.600000	0.287680
	22.605000	0.330433
	22.610000	0.175863
	22.615000	0.136399
	22.620000	0.290969
	22.625000	0.337011
	22.630000	0.179152
	22.635000	0.139687
	22.640000	0.300835
	22.645000	0.343588
	22.650000	0.189018
	22.655000	0.149554
	22.660000	0.307412
	22.665000	0.350166
	22.670000	0.195596
	22.675000	0.165997
	22.680000	0.327145
	22.685000	0.373187
	22.690000	0.218617
	22.695000	0.185730
	22.700000	0.350166
	22.705000	0.402785
	22.710000	0.244927
	22.715000	0.205462
	22.720000	0.369898
	22.725000	0.412651
	22.730000	0.244927
	22.735000	0.208751
	22.740000	0.369898
	22.745000	0.415940
	22.750000	0.258081
	22.755000	0.212039
	22.760000	0.376475
	22.765000	0.412651
	22.770000	0.251504
	22.775000	0.212039
	22.780000	0.373187
	22.785000	0.412651
	22.790000	0.251504
	22.795000	0.208751
	22.800000	0.373187
	22.805000	0.412651
	22.810000	0.248215
	22.815000	0.208751
	22.820000	0.369898
	22.825000	0.409363
	22.830000	0.244927
	22.835000	0.205462
	22.840000	0.366609
	22.845000	0.409363
	22.850000	0.241638
	22.855000	0.198884
	22.860000	0.373187
	22.865000	0.406074
	22.870000	0.235060
	22.875000	0.198884
	22.880000	0.366609
	22.885000	0.402785
	22.890000	0.238349
	22.895000	0.198884
	22.900000	0.360032
	22.905000	0.392919
	22.910000	0.228483
	22.915000	0.189018
	22.920000	0.350166
	22.925000	0.392919
	22.930000	0.218617
	22.935000	0.182441
	22.940000	0.350166
	22.945000	0.386342
	22.950000	0.218617
	22.955000	0.182441
	22.960000	0.343588
	22.965000	0.383053
	22.970000	0.215328
	22.975000	0.179152
	22.980000	0.346877
	22.985000	0.379764
	22.990000	0.208751
	22.995000	0.179152
	23.000000	0.340299
	23.005000	0.379764
	23.010000	0.212039
	23.015000	0.182441
	23.020000	0.340299
	23.025000	0.376475
	23.030000	0.212039
	23.035000	0.175863
	23.040000	0.340299
	23.045000	0.369898
	23.050000	0.208751
	23.055000	0.179152
	23.060000	0.343588
	23.065000	0.373187
	23.070000	0.208751
	23.075000	0.179152
	23.080000	0.340299
	23.085000	0.376475
	23.090000	0.208751
	23.095000	0.179152
	23.100000	0.340299
	23.105000	0.369898
	23.110000	0.208751
	23.115000	0.172575
	23.120000	0.340299
	23.125000	0.363321
	23.130000	0.202173
	23.135000	0.169286
	23.140000	0.330433
	23.145000	0.363321
	23.150000	0.192307
	23.155000	0.156131
	23.160000	0.327145
	23.165000	0.346877
	23.170000	0.179152
	23.175000	0.142976
	23.180000	0.307412
	23.185000	0.323856
	23.190000	0.149554
	23.195000	0.113378
	23.200000	0.271236
	23.205000	0.281102
	23.210000	0.119955
	23.215000	0.080490
	23.220000	0.241638
	23.225000	0.258081
	23.230000	0.093645
	23.235000	0.064047
	23.240000	0.221905
	23.245000	0.241638
	23.250000	0.080490
	23.255000	0.054181
	23.260000	0.212039
	23.265000	0.231772
	23.270000	0.070624
	23.275000	0.050892
	23.280000	0.202173
	23.285000	0.225194
	23.290000	0.070624
	23.295000	0.041026
	23.300000	0.202173
	23.305000	0.225194
	23.310000	0.067335
	23.315000	0.037737
	23.320000	0.205462
	23.325000	0.228483
	23.330000	0.064047
	23.335000	0.044314
	23.340000	0.202173
	23.345000	0.225194
	23.350000	0.067335
	23.355000	0.044314
	23.360000	0.202173
	23.365000	0.215328
	23.370000	0.067335
	23.375000	0.047603
	23.380000	0.205462
	23.385000	0.225194
	23.390000	0.067335
	23.395000	0.047603
	23.400000	0.205462
	23.405000	0.225194
	23.410000	0.067335
	23.415000	0.044314
	23.420000	0.205462
	23.425000	0.225194
	23.430000	0.064047
	23.435000	0.047603
	23.440000	0.212039
	23.445000	0.225194
	23.450000	0.064047
	23.455000	0.050892
	23.460000	0.208751
	23.465000	0.221905
	23.470000	0.067335
	23.475000	0.050892
	23.480000	0.212039
	23.485000	0.228483
	23.490000	0.073913
	23.495000	0.054181
	23.500000	0.221905
	23.505000	0.235060
	23.510000	0.070624
	23.515000	0.054181
	23.520000	0.218617
	23.525000	0.235060
	23.530000	0.070624
	23.535000	0.057469
	23.540000	0.218617
	23.545000	0.238349
	23.550000	0.070624
	23.555000	0.057469
	23.560000	0.218617
	23.565000	0.235060
	23.570000	0.080490
	23.575000	0.060758
	23.580000	0.225194
	23.585000	0.235060
	23.590000	0.077202
	23.595000	0.067335
	23.600000	0.228483
	23.605000	0.241638
	23.610000	0.080490
	23.615000	0.077202
	23.620000	0.231772
	23.625000	0.244927
	23.630000	0.083779
	23.635000	0.077202
	23.640000	0.235060
	23.645000	0.241638
	23.650000	0.087068
	23.655000	0.073913
	23.660000	0.238349
	23.665000	0.244927
	23.670000	0.087068
	23.675000	0.080490
	23.680000	0.241638
	23.685000	0.251504
	23.690000	0.090357
	23.695000	0.083779
	23.700000	0.244927
	23.705000	0.251504
	23.710000	0.090357
	23.715000	0.087068
	23.720000	0.248215
	23.725000	0.254793
	23.730000	0.093645
	23.735000	0.090357
	23.740000	0.248215
	23.745000	0.254793
	23.750000	0.100223
	23.755000	0.093645
	23.760000	0.251504
	23.765000	0.261370
	23.770000	0.100223
	23.775000	0.090357
	23.780000	0.254793
	23.785000	0.258081
	23.790000	0.100223
	23.795000	0.090357
	23.800000	0.258081
	23.805000	0.258081
	23.810000	0.100223
	23.815000	0.096934
	23.820000	0.258081
	23.825000	0.261370
	23.830000	0.103511
	23.835000	0.096934
	23.840000	0.254793
	23.845000	0.264659
	23.850000	0.103511
	23.855000	0.100223
	23.860000	0.258081
	23.865000	0.264659
	23.870000	0.103511
	23.875000	0.096934
	23.880000	0.261370
	23.885000	0.258081
	23.890000	0.103511
	23.895000	0.100223
	23.900000	0.261370
	23.905000	0.261370
	23.910000	0.103511
	23.915000	0.100223
	23.920000	0.261370
	23.925000	0.261370
	23.930000	0.103511
	23.935000	0.103511
	23.940000	0.258081
	23.945000	0.264659
	23.950000	0.100223
	23.955000	0.103511
	23.960000	0.264659
	23.965000	0.264659
	23.970000	0.103511
	23.975000	0.100223
	23.980000	0.261370
	23.985000	0.264659
	23.990000	0.106800
	23.995000	0.103511
	24.000000	0.267948
	24.005000	0.267948
	24.010000	0.103511
	24.015000	0.106800
	24.020000	0.264659
	24.025000	0.261370
	24.030000	0.103511
	24.035000	0.103511
	24.040000	0.264659
	24.045000	0.264659
	24.050000	0.106800
	24.055000	0.110089
	24.060000	0.264659
	24.065000	0.264659
	24.070000	0.100223
	24.075000	0.110089
	24.080000	0.271236
	24.085000	0.264659
	24.090000	0.106800
	24.095000	0.113378
	24.100000	0.271236
	24.105000	0.264659
	24.110000	0.103511
	24.115000	0.116666
	24.120000	0.281102
	24.125000	0.264659
	24.130000	0.103511
	24.135000	0.110089
	24.140000	0.277814
	24.145000	0.267948
	24.150000	0.106800
	24.155000	0.116666
	24.160000	0.274525
	24.165000	0.267948
	24.170000	0.110089
	24.175000	0.113378
	24.180000	0.274525
	24.185000	0.274525
	24.190000	0.110089
	24.195000	0.116666
	24.200000	0.281102
	24.205000	0.271236
	24.210000	0.116666
	24.215000	0.123244
	24.220000	0.277814
	24.225000	0.274525
	24.230000	0.113378
	24.235000	0.123244
	24.240000	0.284391
	24.245000	0.274525
	24.250000	0.116666
	24.255000	0.126533
	24.260000	0.284391
	24.265000	0.281102
	24.270000	0.119955
	24.275000	0.126533
	24.280000	0.290969
	24.285000	0.274525
	24.290000	0.116666
	24.295000	0.133110
	24.300000	0.290969
	24.305000	0.277814
	24.310000	0.113378
	24.315000	0.123244
	24.320000	0.290969
	24.325000	0.281102
	24.330000	0.113378
	24.335000	0.129821
	24.340000	0.290969
	24.345000	0.277814
	24.350000	0.119955
	24.355000	0.129821
	24.360000	0.290969
	24.365000	0.277814
	24.370000	0.123244
	24.375000	0.129821
	24.380000	0.290969
	24.385000	0.281102
	24.390000	0.123244
	24.395000	0.133110
	24.400000	0.297546
	24.405000	0.287680
	24.410000	0.116666
	24.415000	0.129821
	24.420000	0.294257
	24.425000	0.277814
	24.430000	0.116666
	24.435000	0.133110
	24.440000	0.297546
	24.445000	0.277814
	24.450000	0.119955
	24.455000	0.136399
	24.460000	0.297546
	24.465000	0.277814
	24.470000	0.119955
	24.475000	0.142976
	24.480000	0.294257
	24.485000	0.281102
	24.490000	0.116666
	24.495000	0.136399
	24.500000	0.297546
	24.505000	0.274525
	24.510000	0.119955
	24.515000	0.136399
	24.520000	0.297546
	24.525000	0.281102
	24.530000	0.116666
	24.535000	0.133110
	24.540000	0.297546
	24.545000	0.277814
	24.550000	0.116666
	24.555000	0.136399
	24.560000	0.297546
	24.565000	0.274525
	24.570000	0.113378
	24.575000	0.136399
	24.580000	0.294257
	24.585000	0.274525
	24.590000	0.113378
	24.595000	0.136399
	24.600000	0.297546
	24.605000	0.277814
	24.610000	0.116666
	24.615000	0.133110
	24.620000	0.294257
	24.625000	0.274525
	24.630000	0.116666
	24.635000	0.136399
	24.640000	0.294257
	24.645000	0.277814
	24.650000	0.116666
	24.655000	0.139687
	24.660000	0.297546
	24.665000	0.274525
	24.670000	0.116666
	24.675000	0.136399
	24.680000	0.300835
	24.685000	0.277814
	24.690000	0.116666
	24.695000	0.142976
	24.700000	0.300835
	24.705000	0.277814
	24.710000	0.119955
	24.715000	0.136399
	24.720000	0.297546
	24.725000	0.281102
	24.730000	0.116666
	24.735000	0.136399
	24.740000	0.297546
	24.745000	0.271236
	24.750000	0.116666
	24.755000	0.136399
	24.760000	0.297546
	24.765000	0.267948
	24.770000	0.116666
	24.775000	0.142976
	24.780000	0.297546
	24.785000	0.271236
	24.790000	0.113378
	24.795000	0.142976
	24.800000	0.300835
	24.805000	0.274525
	24.810000	0.116666
	24.815000	0.149554
	24.820000	0.297546
	24.825000	0.274525
	24.830000	0.116666
	24.835000	0.142976
	24.840000	0.300835
	24.845000	0.274525
	24.850000	0.119955
	24.855000	0.146265
	24.860000	0.304124
	24.865000	0.274525
	24.870000	0.113378
	24.875000	0.142976
	24.880000	0.307412
	24.885000	0.274525
	24.890000	0.116666
	24.895000	0.146265
	24.900000	0.307412
	24.905000	0.277814
	24.910000	0.116666
	24.915000	0.146265
	24.920000	0.307412
	24.925000	0.274525
	24.930000	0.119955
	24.935000	0.149554
	24.940000	0.307412
	24.945000	0.281102
	24.950000	0.116666
	24.955000	0.149554
	24.960000	0.307412
	24.965000	0.277814
	24.970000	0.113378
	24.975000	0.156131
	24.980000	0.307412
	24.985000	0.271236
	24.990000	0.119955
	24.995000	0.149554
	25.000000	0.307412
	25.005000	0.277814
	25.010000	0.116666
	25.015000	0.152842
	25.020000	0.310701
	25.025000	0.274525
	25.030000	0.113378
	25.035000	0.149554
	25.040000	0.307412
	25.045000	0.277814
	25.050000	0.119955
	25.055000	0.152842
	25.060000	0.310701
	25.065000	0.281102
	25.070000	0.116666
	25.075000	0.149554
	25.080000	0.304124
	25.085000	0.274525
	25.090000	0.116666
	25.095000	0.149554
	25.100000	0.307412
	25.105000	0.274525
	25.110000	0.116666
	25.115000	0.149554
	25.120000	0.307412
	25.125000	0.271236
	25.130000	0.116666
	25.135000	0.146265
	25.140000	0.304124
	25.145000	0.267948
	25.150000	0.116666
	25.155000	0.152842
	25.160000	0.307412
	25.165000	0.267948
	25.170000	0.110089
	25.175000	0.149554
	25.180000	0.310701
	25.185000	0.264659
	25.190000	0.113378
	25.195000	0.152842
	25.200000	0.304124
	25.205000	0.267948
	25.210000	0.110089
	25.215000	0.156131
	25.220000	0.304124
	25.225000	0.264659
	25.230000	0.113378
	25.235000	0.152842
	25.240000	0.307412
	25.245000	0.267948
	25.250000	0.110089
	25.255000	0.149554
	25.260000	0.307412
	25.265000	0.267948
	25.270000	0.106800
	25.275000	0.152842
	25.280000	0.307412
	25.285000	0.267948
	25.290000	0.110089
	25.295000	0.152842
	25.300000	0.307412
	25.305000	0.267948
	25.310000	0.113378
	25.315000	0.149554
	25.320000	0.310701
	25.325000	0.267948
	25.330000	0.113378
	25.335000	0.156131
	25.340000	0.310701
	25.345000	0.264659
	25.350000	0.113378
	25.355000	0.156131
	25.360000	0.310701
	25.365000	0.264659
	25.370000	0.113378
	25.375000	0.152842
	25.380000	0.307412
	25.385000	0.267948
	25.390000	0.110089
	25.395000	0.159420
	25.400000	0.310701
	25.405000	0.261370
	25.410000	0.110089
	25.415000	0.156131
	25.420000	0.310701
	25.425000	0.271236
	25.430000	0.113378
	25.435000	0.159420
	25.440000	0.313990
	25.445000	0.267948
	25.450000	0.113378
	25.455000	0.162708
	25.460000	0.307412
	25.465000	0.264659
	25.470000	0.116666
	25.475000	0.159420
	25.480000	0.313990
	25.485000	0.267948
	25.490000	0.113378
	25.495000	0.159420
	25.500000	0.313990
	25.505000	0.271236
	25.510000	0.113378
	25.515000	0.162708
	25.520000	0.313990
	25.525000	0.264659
	25.530000	0.110089
	25.535000	0.159420
	25.540000	0.317278
	25.545000	0.267948
	25.550000	0.113378
	25.555000	0.162708
	25.560000	0.320567
	25.565000	0.264659
	25.570000	0.113378
	25.575000	0.162708
	25.580000	0.313990
	25.585000	0.267948
	25.590000	0.113378
	25.595000	0.165997
	25.600000	0.317278
	25.605000	0.267948
	25.610000	0.113378
	25.615000	0.165997
	25.620000	0.313990
	25.625000	0.264659
	25.630000	0.113378
	25.635000	0.165997
	25.640000	0.317278
	25.645000	0.267948
	25.650000	0.110089
	25.655000	0.162708
	25.660000	0.317278
	25.665000	0.261370
	25.670000	0.106800
	25.675000	0.169286
	25.680000	0.323856
	25.685000	0.267948
	25.690000	0.110089
	25.695000	0.169286
	25.700000	0.320567
	25.705000	0.264659
	25.710000	0.113378
	25.715000	0.165997
	25.720000	0.320567
	25.725000	0.264659
	25.730000	0.116666
	25.735000	0.165997
	25.740000	0.320567
	25.745000	0.264659
	25.750000	0.106800
	25.755000	0.165997
	25.760000	0.320567
	25.765000	0.261370
	25.770000	0.106800
	25.775000	0.162708
	25.780000	0.317278
	25.785000	0.267948
	25.790000	0.106800
	25.795000	0.162708
	25.800000	0.320567
	25.805000	0.261370
	25.810000	0.103511
	25.815000	0.169286
	25.820000	0.323856
	25.825000	0.258081
	25.830000	0.106800
	25.835000	0.162708
	25.840000	0.317278
	25.845000	0.261370
	25.850000	0.103511
	25.855000	0.162708
	25.860000	0.320567
	25.865000	0.261370
	25.870000	0.103511
	25.875000	0.165997
	25.880000	0.320567
	25.885000	0.258081
	25.890000	0.106800
	25.895000	0.172575
	25.900000	0.320567
	25.905000	0.261370
	25.910000	0.106800
	25.915000	0.169286
	25.920000	0.320567
	25.925000	0.261370
	25.930000	0.106800
	25.935000	0.162708
	25.940000	0.320567
	25.945000	0.264659
	25.950000	0.103511
	25.955000	0.165997
	25.960000	0.320567
	25.965000	0.258081
	25.970000	0.103511
	25.975000	0.169286
	25.980000	0.323856
	25.985000	0.258081
	25.990000	0.103511
	25.995000	0.169286
	26.000000	0.327145
	26.005000	0.261370
	26.010000	0.103511
	26.015000	0.169286
	26.020000	0.323856
	26.025000	0.258081
	26.030000	0.103511
	26.035000	0.169286
	26.040000	0.327145
	26.045000	0.254793
	26.050000	0.106800
	26.055000	0.169286
	26.060000	0.323856
	26.065000	0.258081
	26.070000	0.103511
	26.075000	0.169286
	26.080000	0.330433
	26.085000	0.261370
	26.090000	0.106800
	26.095000	0.172575
	26.100000	0.327145
	26.105000	0.258081
	26.110000	0.110089
	26.115000	0.175863
	26.120000	0.323856
	26.125000	0.258081
	26.130000	0.106800
	26.135000	0.175863
	26.140000	0.327145
	26.145000	0.258081
	26.150000	0.106800
	26.155000	0.172575
	26.160000	0.327145
	26.165000	0.261370
	26.170000	0.110089
	26.175000	0.169286
	26.180000	0.327145
	26.185000	0.258081
	26.190000	0.103511
	26.195000	0.169286
	26.200000	0.327145
	26.205000	0.261370
	26.210000	0.100223
	26.215000	0.172575
	26.220000	0.323856
	26.225000	0.251504
	26.230000	0.103511
	26.235000	0.175863
	26.240000	0.330433
	26.245000	0.251504
	26.250000	0.106800
	26.255000	0.175863
	26.260000	0.323856
	26.265000	0.258081
	26.270000	0.106800
	26.275000	0.172575
	26.280000	0.327145
	26.285000	0.251504
	26.290000	0.100223
	26.295000	0.172575
	26.300000	0.323856
	26.305000	0.251504
	26.310000	0.103511
	26.315000	0.175863
	26.320000	0.327145
	26.325000	0.254793
	26.330000	0.100223
	26.335000	0.172575
	26.340000	0.327145
	26.345000	0.248215
	26.350000	0.103511
	26.355000	0.175863
	26.360000	0.320567
	26.365000	0.254793
	26.370000	0.100223
	26.375000	0.172575
	26.380000	0.320567
	26.385000	0.251504
	26.390000	0.103511
	26.395000	0.172575
	26.400000	0.327145
	26.405000	0.244927
	26.410000	0.100223
	26.415000	0.175863
	26.420000	0.320567
	26.425000	0.244927
	26.430000	0.100223
	26.435000	0.172575
	26.440000	0.327145
	26.445000	0.244927
	26.450000	0.100223
	26.455000	0.175863
	26.460000	0.323856
	26.465000	0.241638
	26.470000	0.093645
	26.475000	0.179152
	26.480000	0.323856
	26.485000	0.251504
	26.490000	0.103511
	26.495000	0.179152
	26.500000	0.330433
	26.505000	0.248215
	26.510000	0.100223
	26.515000	0.185730
	26.520000	0.327145
	26.525000	0.244927
	26.530000	0.100223
	26.535000	0.182441
	26.540000	0.327145
	26.545000	0.241638
	26.550000	0.103511
	26.555000	0.175863
	26.560000	0.323856
	26.565000	0.248215
	26.570000	0.103511
	26.575000	0.179152
	26.580000	0.323856
	26.585000	0.244927
	26.590000	0.100223
	26.595000	0.182441
	26.600000	0.327145
	26.605000	0.241638
	26.610000	0.100223
	26.615000	0.182441
	26.620000	0.323856
	26.625000	0.244927
	26.630000	0.103511
	26.635000	0.182441
	26.640000	0.327145
	26.645000	0.244927
	26.650000	0.100223
	26.655000	0.182441
	26.660000	0.327145
	26.665000	0.238349
	26.670000	0.100223
