2024/7/26 	 11:23:04 
 This file comes from Vt only measurement 	 1.000000E-1 
 Voltage Sensitivity 	 0.000000E+0 
 Sampling rate 	 200 
 Number of samples per channel 	 -1 
 No filter from Labview 	 	 	 
 	 
 ***End_of_Header*** 
 	 Time 	  Voltage 	 Filtered Voltage 	 
	0.000000	0.544200
	0.005000	0.363321
	0.010000	0.399496
	0.015000	0.586954
	0.020000	0.547489
	0.025000	0.363321
	0.030000	0.399496
	0.035000	0.577088
	0.040000	0.540912
	0.045000	0.366609
	0.050000	0.399496
	0.055000	0.583665
	0.060000	0.544200
	0.065000	0.363321
	0.070000	0.399496
	0.075000	0.577088
	0.080000	0.544200
	0.085000	0.363321
	0.090000	0.399496
	0.095000	0.577088
	0.100000	0.537623
	0.105000	0.363321
	0.110000	0.399496
	0.115000	0.577088
	0.120000	0.540912
	0.125000	0.366609
	0.130000	0.402785
	0.135000	0.577088
	0.140000	0.540912
	0.145000	0.363321
	0.150000	0.399496
	0.155000	0.577088
	0.160000	0.544200
	0.165000	0.356743
	0.170000	0.406074
	0.175000	0.580376
	0.180000	0.540912
	0.185000	0.363321
	0.190000	0.399496
	0.195000	0.577088
	0.200000	0.540912
	0.205000	0.360032
	0.210000	0.402785
	0.215000	0.580376
	0.220000	0.544200
	0.225000	0.363321
	0.230000	0.406074
	0.235000	0.580376
	0.240000	0.544200
	0.245000	0.363321
	0.250000	0.402785
	0.255000	0.583665
	0.260000	0.544200
	0.265000	0.363321
	0.270000	0.409363
	0.275000	0.590242
	0.280000	0.544200
	0.285000	0.366609
	0.290000	0.409363
	0.295000	0.590242
	0.300000	0.547489
	0.305000	0.366609
	0.310000	0.412651
	0.315000	0.586954
	0.320000	0.547489
	0.325000	0.366609
	0.330000	0.406074
	0.335000	0.590242
	0.340000	0.550778
	0.345000	0.369898
	0.350000	0.412651
	0.355000	0.590242
	0.360000	0.547489
	0.365000	0.373187
	0.370000	0.412651
	0.375000	0.590242
	0.380000	0.550778
	0.385000	0.369898
	0.390000	0.415940
	0.395000	0.593531
	0.400000	0.550778
	0.405000	0.373187
	0.410000	0.419229
	0.415000	0.603397
	0.420000	0.547489
	0.425000	0.376475
	0.430000	0.419229
	0.435000	0.600109
	0.440000	0.554066
	0.445000	0.373187
	0.450000	0.425806
	0.455000	0.603397
	0.460000	0.550778
	0.465000	0.376475
	0.470000	0.429095
	0.475000	0.603397
	0.480000	0.550778
	0.485000	0.376475
	0.490000	0.429095
	0.495000	0.606686
	0.500000	0.557355
	0.505000	0.379764
	0.510000	0.432384
	0.515000	0.606686
	0.520000	0.557355
	0.525000	0.379764
	0.530000	0.432384
	0.535000	0.606686
	0.540000	0.554066
	0.545000	0.386342
	0.550000	0.435672
	0.555000	0.609975
	0.560000	0.560644
	0.565000	0.379764
	0.570000	0.435672
	0.575000	0.613263
	0.580000	0.554066
	0.585000	0.383053
	0.590000	0.438961
	0.595000	0.616552
	0.600000	0.560644
	0.605000	0.383053
	0.610000	0.442250
	0.615000	0.613263
	0.620000	0.560644
	0.625000	0.389630
	0.630000	0.445539
	0.635000	0.616552
	0.640000	0.560644
	0.645000	0.392919
	0.650000	0.448827
	0.655000	0.619841
	0.660000	0.567221
	0.665000	0.396208
	0.670000	0.448827
	0.675000	0.626418
	0.680000	0.567221
	0.685000	0.392919
	0.690000	0.448827
	0.695000	0.629707
	0.700000	0.573799
	0.705000	0.396208
	0.710000	0.452116
	0.715000	0.626418
	0.720000	0.570510
	0.725000	0.399496
	0.730000	0.458694
	0.735000	0.629707
	0.740000	0.573799
	0.745000	0.396208
	0.750000	0.455405
	0.755000	0.629707
	0.760000	0.570510
	0.765000	0.399496
	0.770000	0.458694
	0.775000	0.629707
	0.780000	0.570510
	0.785000	0.399496
	0.790000	0.458694
	0.795000	0.632996
	0.800000	0.573799
	0.805000	0.399496
	0.810000	0.465271
	0.815000	0.636285
	0.820000	0.573799
	0.825000	0.409363
	0.830000	0.475137
	0.835000	0.646151
	0.840000	0.590242
	0.845000	0.422518
	0.850000	0.491581
	0.855000	0.665883
	0.860000	0.606686
	0.865000	0.442250
	0.870000	0.508024
	0.875000	0.682327
	0.880000	0.623130
	0.885000	0.458694
	0.890000	0.521179
	0.895000	0.695482
	0.900000	0.632996
	0.905000	0.465271
	0.910000	0.527757
	0.915000	0.695482
	0.920000	0.629707
	0.925000	0.455405
	0.930000	0.517891
	0.935000	0.682327
	0.940000	0.616552
	0.945000	0.448827
	0.950000	0.501447
	0.955000	0.675749
	0.960000	0.603397
	0.965000	0.425806
	0.970000	0.491581
	0.975000	0.656017
	0.980000	0.586954
	0.985000	0.415940
	0.990000	0.481715
	0.995000	0.646151
	1.000000	0.583665
	1.005000	0.409363
	1.010000	0.478426
	1.015000	0.646151
	1.020000	0.570510
	1.025000	0.409363
	1.030000	0.475137
	1.035000	0.639573
	1.040000	0.570510
	1.045000	0.399496
	1.050000	0.468560
	1.055000	0.636285
	1.060000	0.563933
	1.065000	0.396208
	1.070000	0.465271
	1.075000	0.632996
	1.080000	0.567221
	1.085000	0.396208
	1.090000	0.461982
	1.095000	0.629707
	1.100000	0.557355
	1.105000	0.392919
	1.110000	0.461982
	1.115000	0.632996
	1.120000	0.560644
	1.125000	0.389630
	1.130000	0.458694
	1.135000	0.629707
	1.140000	0.554066
	1.145000	0.392919
	1.150000	0.465271
	1.155000	0.632996
	1.160000	0.560644
	1.165000	0.392919
	1.170000	0.465271
	1.175000	0.636285
	1.180000	0.560644
	1.185000	0.396208
	1.190000	0.468560
	1.195000	0.632996
	1.200000	0.563933
	1.205000	0.399496
	1.210000	0.468560
	1.215000	0.632996
	1.220000	0.560644
	1.225000	0.399496
	1.230000	0.475137
	1.235000	0.642862
	1.240000	0.567221
	1.245000	0.399496
	1.250000	0.478426
	1.255000	0.642862
	1.260000	0.567221
	1.265000	0.396208
	1.270000	0.478426
	1.275000	0.642862
	1.280000	0.567221
	1.285000	0.402785
	1.290000	0.478426
	1.295000	0.642862
	1.300000	0.570510
	1.305000	0.406074
	1.310000	0.485003
	1.315000	0.649439
	1.320000	0.577088
	1.325000	0.409363
	1.330000	0.488292
	1.335000	0.652728
	1.340000	0.570510
	1.345000	0.409363
	1.350000	0.488292
	1.355000	0.649439
	1.360000	0.577088
	1.365000	0.415940
	1.370000	0.498158
	1.375000	0.656017
	1.380000	0.583665
	1.385000	0.415940
	1.390000	0.498158
	1.395000	0.665883
	1.400000	0.583665
	1.405000	0.422518
	1.410000	0.501447
	1.415000	0.665883
	1.420000	0.583665
	1.425000	0.415940
	1.430000	0.501447
	1.435000	0.662594
	1.440000	0.583665
	1.445000	0.422518
	1.450000	0.501447
	1.455000	0.659306
	1.460000	0.583665
	1.465000	0.419229
	1.470000	0.504736
	1.475000	0.665883
	1.480000	0.577088
	1.485000	0.419229
	1.490000	0.508024
	1.495000	0.665883
	1.500000	0.583665
	1.505000	0.422518
	1.510000	0.504736
	1.515000	0.665883
	1.520000	0.580376
	1.525000	0.415940
	1.530000	0.504736
	1.535000	0.669172
	1.540000	0.583665
	1.545000	0.419229
	1.550000	0.504736
	1.555000	0.662594
	1.560000	0.577088
	1.565000	0.415940
	1.570000	0.504736
	1.575000	0.669172
	1.580000	0.577088
	1.585000	0.415940
	1.590000	0.504736
	1.595000	0.665883
	1.600000	0.577088
	1.605000	0.412651
	1.610000	0.498158
	1.615000	0.656017
	1.620000	0.573799
	1.625000	0.409363
	1.630000	0.494869
	1.635000	0.656017
	1.640000	0.567221
	1.645000	0.402785
	1.650000	0.494869
	1.655000	0.652728
	1.660000	0.563933
	1.665000	0.402785
	1.670000	0.491581
	1.675000	0.649439
	1.680000	0.563933
	1.685000	0.396208
	1.690000	0.491581
	1.695000	0.649439
	1.700000	0.560644
	1.705000	0.399496
	1.710000	0.494869
	1.715000	0.649439
	1.720000	0.554066
	1.725000	0.399496
	1.730000	0.494869
	1.735000	0.649439
	1.740000	0.560644
	1.745000	0.399496
	1.750000	0.491581
	1.755000	0.649439
	1.760000	0.554066
	1.765000	0.396208
	1.770000	0.491581
	1.775000	0.649439
	1.780000	0.554066
	1.785000	0.399496
	1.790000	0.494869
	1.795000	0.646151
	1.800000	0.554066
	1.805000	0.399496
	1.810000	0.494869
	1.815000	0.652728
	1.820000	0.560644
	1.825000	0.402785
	1.830000	0.498158
	1.835000	0.656017
	1.840000	0.557355
	1.845000	0.396208
	1.850000	0.501447
	1.855000	0.652728
	1.860000	0.557355
	1.865000	0.406074
	1.870000	0.504736
	1.875000	0.656017
	1.880000	0.560644
	1.885000	0.406074
	1.890000	0.501447
	1.895000	0.656017
	1.900000	0.560644
	1.905000	0.409363
	1.910000	0.504736
	1.915000	0.656017
	1.920000	0.563933
	1.925000	0.406074
	1.930000	0.504736
	1.935000	0.656017
	1.940000	0.563933
	1.945000	0.402785
	1.950000	0.508024
	1.955000	0.656017
	1.960000	0.560644
	1.965000	0.406074
	1.970000	0.508024
	1.975000	0.659306
	1.980000	0.557355
	1.985000	0.406074
	1.990000	0.508024
	1.995000	0.659306
	2.000000	0.560644
	2.005000	0.406074
	2.010000	0.511313
	2.015000	0.665883
	2.020000	0.554066
	2.025000	0.406074
	2.030000	0.508024
	2.035000	0.662594
	2.040000	0.560644
	2.045000	0.406074
	2.050000	0.511313
	2.055000	0.659306
	2.060000	0.560644
	2.065000	0.406074
	2.070000	0.508024
	2.075000	0.659306
	2.080000	0.554066
	2.085000	0.406074
	2.090000	0.511313
	2.095000	0.662594
	2.100000	0.557355
	2.105000	0.409363
	2.110000	0.511313
	2.115000	0.665883
	2.120000	0.560644
	2.125000	0.402785
	2.130000	0.514602
	2.135000	0.665883
	2.140000	0.560644
	2.145000	0.412651
	2.150000	0.517891
	2.155000	0.669172
	2.160000	0.563933
	2.165000	0.409363
	2.170000	0.514602
	2.175000	0.665883
	2.180000	0.560644
	2.185000	0.409363
	2.190000	0.514602
	2.195000	0.669172
	2.200000	0.560644
	2.205000	0.412651
	2.210000	0.517891
	2.215000	0.665883
	2.220000	0.563933
	2.225000	0.409363
	2.230000	0.521179
	2.235000	0.665883
	2.240000	0.557355
	2.245000	0.409363
	2.250000	0.524468
	2.255000	0.669172
	2.260000	0.563933
	2.265000	0.412651
	2.270000	0.524468
	2.275000	0.672460
	2.280000	0.560644
	2.285000	0.412651
	2.290000	0.524468
	2.295000	0.669172
	2.300000	0.557355
	2.305000	0.412651
	2.310000	0.527757
	2.315000	0.672460
	2.320000	0.560644
	2.325000	0.415940
	2.330000	0.524468
	2.335000	0.665883
	2.340000	0.560644
	2.345000	0.419229
	2.350000	0.531045
	2.355000	0.672460
	2.360000	0.563933
	2.365000	0.412651
	2.370000	0.524468
	2.375000	0.675749
	2.380000	0.557355
	2.385000	0.409363
	2.390000	0.524468
	2.395000	0.669172
	2.400000	0.560644
	2.405000	0.419229
	2.410000	0.527757
	2.415000	0.682327
	2.420000	0.557355
	2.425000	0.412651
	2.430000	0.531045
	2.435000	0.672460
	2.440000	0.560644
	2.445000	0.412651
	2.450000	0.524468
	2.455000	0.672460
	2.460000	0.557355
	2.465000	0.412651
	2.470000	0.531045
	2.475000	0.672460
	2.480000	0.557355
	2.485000	0.419229
	2.490000	0.531045
	2.495000	0.675749
	2.500000	0.560644
	2.505000	0.412651
	2.510000	0.534334
	2.515000	0.675749
	2.520000	0.560644
	2.525000	0.415940
	2.530000	0.534334
	2.535000	0.679038
	2.540000	0.557355
	2.545000	0.415940
	2.550000	0.531045
	2.555000	0.675749
	2.560000	0.554066
	2.565000	0.419229
	2.570000	0.537623
	2.575000	0.682327
	2.580000	0.560644
	2.585000	0.419229
	2.590000	0.537623
	2.595000	0.679038
	2.600000	0.557355
	2.605000	0.422518
	2.610000	0.537623
	2.615000	0.675749
	2.620000	0.557355
	2.625000	0.415940
	2.630000	0.537623
	2.635000	0.675749
	2.640000	0.557355
	2.645000	0.419229
	2.650000	0.540912
	2.655000	0.679038
	2.660000	0.557355
	2.665000	0.422518
	2.670000	0.540912
	2.675000	0.675749
	2.680000	0.557355
	2.685000	0.422518
	2.690000	0.540912
	2.695000	0.672460
	2.700000	0.554066
	2.705000	0.422518
	2.710000	0.540912
	2.715000	0.675749
	2.720000	0.557355
	2.725000	0.422518
	2.730000	0.547489
	2.735000	0.685615
	2.740000	0.557355
	2.745000	0.422518
	2.750000	0.544200
	2.755000	0.685615
	2.760000	0.560644
	2.765000	0.425806
	2.770000	0.550778
	2.775000	0.685615
	2.780000	0.560644
	2.785000	0.429095
	2.790000	0.557355
	2.795000	0.685615
	2.800000	0.567221
	2.805000	0.429095
	2.810000	0.554066
	2.815000	0.692193
	2.820000	0.563933
	2.825000	0.432384
	2.830000	0.560644
	2.835000	0.695482
	2.840000	0.563933
	2.845000	0.432384
	2.850000	0.560644
	2.855000	0.695482
	2.860000	0.567221
	2.865000	0.435672
	2.870000	0.554066
	2.875000	0.692193
	2.880000	0.567221
	2.885000	0.432384
	2.890000	0.560644
	2.895000	0.688904
	2.900000	0.570510
	2.905000	0.432384
	2.910000	0.563933
	2.915000	0.698770
	2.920000	0.567221
	2.925000	0.438961
	2.930000	0.563933
	2.935000	0.698770
	2.940000	0.567221
	2.945000	0.435672
	2.950000	0.563933
	2.955000	0.695482
	2.960000	0.567221
	2.965000	0.435672
	2.970000	0.563933
	2.975000	0.692193
	2.980000	0.563933
	2.985000	0.435672
	2.990000	0.563933
	2.995000	0.695482
	3.000000	0.563933
	3.005000	0.438961
	3.010000	0.563933
	3.015000	0.698770
	3.020000	0.563933
	3.025000	0.435672
	3.030000	0.567221
	3.035000	0.695482
	3.040000	0.567221
	3.045000	0.435672
	3.050000	0.563933
	3.055000	0.688904
	3.060000	0.563933
	3.065000	0.432384
	3.070000	0.563933
	3.075000	0.688904
	3.080000	0.563933
	3.085000	0.432384
	3.090000	0.563933
	3.095000	0.688904
	3.100000	0.560644
	3.105000	0.432384
	3.110000	0.563933
	3.115000	0.688904
	3.120000	0.557355
	3.125000	0.432384
	3.130000	0.567221
	3.135000	0.692193
	3.140000	0.560644
	3.145000	0.432384
	3.150000	0.567221
	3.155000	0.692193
	3.160000	0.560644
	3.165000	0.435672
	3.170000	0.570510
	3.175000	0.692193
	3.180000	0.557355
	3.185000	0.438961
	3.190000	0.573799
	3.195000	0.698770
	3.200000	0.560644
	3.205000	0.442250
	3.210000	0.580376
	3.215000	0.708636
	3.220000	0.570510
	3.225000	0.452116
	3.230000	0.593531
	3.235000	0.715214
	3.240000	0.583665
	3.245000	0.465271
	3.250000	0.596820
	3.255000	0.725080
	3.260000	0.593531
	3.265000	0.475137
	3.270000	0.609975
	3.275000	0.731657
	3.280000	0.600109
	3.285000	0.478426
	3.290000	0.616552
	3.295000	0.734946
	3.300000	0.603397
	3.305000	0.485003
	3.310000	0.619841
	3.315000	0.748101
	3.320000	0.606686
	3.325000	0.488292
	3.330000	0.632996
	3.335000	0.754679
	3.340000	0.623130
	3.345000	0.501447
	3.350000	0.642862
	3.355000	0.761256
	3.360000	0.626418
	3.365000	0.511313
	3.370000	0.649439
	3.375000	0.771122
	3.380000	0.636285
	3.385000	0.517891
	3.390000	0.649439
	3.395000	0.774411
	3.400000	0.629707
	3.405000	0.514602
	3.410000	0.652728
	3.415000	0.767833
	3.420000	0.629707
	3.425000	0.511313
	3.430000	0.649439
	3.435000	0.771122
	3.440000	0.623130
	3.445000	0.508024
	3.450000	0.646151
	3.455000	0.757967
	3.460000	0.619841
	3.465000	0.498158
	3.470000	0.636285
	3.475000	0.751390
	3.480000	0.613263
	3.485000	0.494869
	3.490000	0.632996
	3.495000	0.748101
	3.500000	0.603397
	3.505000	0.488292
	3.510000	0.636285
	3.515000	0.744812
	3.520000	0.606686
	3.525000	0.485003
	3.530000	0.629707
	3.535000	0.744812
	3.540000	0.600109
	3.545000	0.485003
	3.550000	0.623130
	3.555000	0.738235
	3.560000	0.593531
	3.565000	0.481715
	3.570000	0.623130
	3.575000	0.738235
	3.580000	0.596820
	3.585000	0.481715
	3.590000	0.619841
	3.595000	0.734946
	3.600000	0.590242
	3.605000	0.475137
	3.610000	0.623130
	3.615000	0.728369
	3.620000	0.583665
	3.625000	0.468560
	3.630000	0.609975
	3.635000	0.721791
	3.640000	0.580376
	3.645000	0.465271
	3.650000	0.603397
	3.655000	0.718503
	3.660000	0.577088
	3.665000	0.461982
	3.670000	0.609975
	3.675000	0.721791
	3.680000	0.570510
	3.685000	0.461982
	3.690000	0.603397
	3.695000	0.715214
	3.700000	0.567221
	3.705000	0.458694
	3.710000	0.606686
	3.715000	0.708636
	3.720000	0.567221
	3.725000	0.465271
	3.730000	0.603397
	3.735000	0.715214
	3.740000	0.570510
	3.745000	0.458694
	3.750000	0.603397
	3.755000	0.715214
	3.760000	0.567221
	3.765000	0.458694
	3.770000	0.603397
	3.775000	0.711925
	3.780000	0.567221
	3.785000	0.461982
	3.790000	0.603397
	3.795000	0.708636
	3.800000	0.567221
	3.805000	0.458694
	3.810000	0.600109
	3.815000	0.708636
	3.820000	0.560644
	3.825000	0.452116
	3.830000	0.600109
	3.835000	0.705348
	3.840000	0.550778
	3.845000	0.442250
	3.850000	0.593531
	3.855000	0.702059
	3.860000	0.550778
	3.865000	0.442250
	3.870000	0.593531
	3.875000	0.698770
	3.880000	0.550778
	3.885000	0.442250
	3.890000	0.590242
	3.895000	0.692193
	3.900000	0.544200
	3.905000	0.438961
	3.910000	0.590242
	3.915000	0.692193
	3.920000	0.540912
	3.925000	0.438961
	3.930000	0.583665
	3.935000	0.692193
	3.940000	0.540912
	3.945000	0.438961
	3.950000	0.586954
	3.955000	0.688904
	3.960000	0.537623
	3.965000	0.438961
	3.970000	0.590242
	3.975000	0.692193
	3.980000	0.540912
	3.985000	0.438961
	3.990000	0.590242
	3.995000	0.695482
	4.000000	0.540912
	4.005000	0.432384
	4.010000	0.590242
	4.015000	0.692193
	4.020000	0.537623
	4.025000	0.438961
	4.030000	0.593531
	4.035000	0.692193
	4.040000	0.540912
	4.045000	0.438961
	4.050000	0.590242
	4.055000	0.695482
	4.060000	0.537623
	4.065000	0.438961
	4.070000	0.593531
	4.075000	0.688904
	4.080000	0.540912
	4.085000	0.438961
	4.090000	0.590242
	4.095000	0.695482
	4.100000	0.537623
	4.105000	0.438961
	4.110000	0.593531
	4.115000	0.692193
	4.120000	0.537623
	4.125000	0.445539
	4.130000	0.590242
	4.135000	0.692193
	4.140000	0.537623
	4.145000	0.438961
	4.150000	0.593531
	4.155000	0.688904
	4.160000	0.534334
	4.165000	0.438961
	4.170000	0.590242
	4.175000	0.692193
	4.180000	0.537623
	4.185000	0.445539
	4.190000	0.596820
	4.195000	0.688904
	4.200000	0.537623
	4.205000	0.438961
	4.210000	0.596820
	4.215000	0.695482
	4.220000	0.531045
	4.225000	0.438961
	4.230000	0.600109
	4.235000	0.695482
	4.240000	0.537623
	4.245000	0.442250
	4.250000	0.600109
	4.255000	0.688904
	4.260000	0.537623
	4.265000	0.445539
	4.270000	0.600109
	4.275000	0.692193
	4.280000	0.534334
	4.285000	0.438961
	4.290000	0.596820
	4.295000	0.692193
	4.300000	0.534334
	4.305000	0.445539
	4.310000	0.603397
	4.315000	0.692193
	4.320000	0.534334
	4.325000	0.442250
	4.330000	0.600109
	4.335000	0.695482
	4.340000	0.540912
	4.345000	0.442250
	4.350000	0.600109
	4.355000	0.692193
	4.360000	0.537623
	4.365000	0.442250
	4.370000	0.606686
	4.375000	0.695482
	4.380000	0.534334
	4.385000	0.445539
	4.390000	0.596820
	4.395000	0.698770
	4.400000	0.537623
	4.405000	0.438961
	4.410000	0.603397
	4.415000	0.695482
	4.420000	0.527757
	4.425000	0.438961
	4.430000	0.600109
	4.435000	0.695482
	4.440000	0.534334
	4.445000	0.442250
	4.450000	0.606686
	4.455000	0.698770
	4.460000	0.534334
	4.465000	0.448827
	4.470000	0.603397
	4.475000	0.698770
	4.480000	0.531045
	4.485000	0.445539
	4.490000	0.603397
	4.495000	0.698770
	4.500000	0.527757
	4.505000	0.445539
	4.510000	0.600109
	4.515000	0.695482
	4.520000	0.527757
	4.525000	0.448827
	4.530000	0.606686
	4.535000	0.692193
	4.540000	0.531045
	4.545000	0.445539
	4.550000	0.609975
	4.555000	0.695482
	4.560000	0.531045
	4.565000	0.442250
	4.570000	0.603397
	4.575000	0.688904
	4.580000	0.531045
	4.585000	0.442250
	4.590000	0.603397
	4.595000	0.695482
	4.600000	0.527757
	4.605000	0.445539
	4.610000	0.606686
	4.615000	0.695482
	4.620000	0.527757
	4.625000	0.445539
	4.630000	0.606686
	4.635000	0.692193
	4.640000	0.527757
	4.645000	0.445539
	4.650000	0.603397
	4.655000	0.692193
	4.660000	0.527757
	4.665000	0.445539
	4.670000	0.606686
	4.675000	0.695482
	4.680000	0.527757
	4.685000	0.445539
	4.690000	0.613263
	4.695000	0.695482
	4.700000	0.527757
	4.705000	0.445539
	4.710000	0.609975
	4.715000	0.692193
	4.720000	0.527757
	4.725000	0.445539
	4.730000	0.613263
	4.735000	0.692193
	4.740000	0.527757
	4.745000	0.445539
	4.750000	0.613263
	4.755000	0.688904
	4.760000	0.524468
	4.765000	0.442250
	4.770000	0.609975
	4.775000	0.695482
	4.780000	0.524468
	4.785000	0.445539
	4.790000	0.609975
	4.795000	0.688904
	4.800000	0.524468
	4.805000	0.442250
	4.810000	0.603397
	4.815000	0.685615
	4.820000	0.517891
	4.825000	0.442250
	4.830000	0.606686
	4.835000	0.688904
	4.840000	0.521179
	4.845000	0.445539
	4.850000	0.609975
	4.855000	0.688904
	4.860000	0.521179
	4.865000	0.442250
	4.870000	0.609975
	4.875000	0.685615
	4.880000	0.517891
	4.885000	0.442250
	4.890000	0.609975
	4.895000	0.688904
	4.900000	0.514602
	4.905000	0.445539
	4.910000	0.616552
	4.915000	0.685615
	4.920000	0.517891
	4.925000	0.445539
	4.930000	0.613263
	4.935000	0.688904
	4.940000	0.517891
	4.945000	0.445539
	4.950000	0.613263
	4.955000	0.685615
	4.960000	0.514602
	4.965000	0.445539
	4.970000	0.613263
	4.975000	0.688904
	4.980000	0.521179
	4.985000	0.445539
	4.990000	0.606686
	4.995000	0.682327
	5.000000	0.517891
	5.005000	0.442250
	5.010000	0.613263
	5.015000	0.688904
	5.020000	0.514602
	5.025000	0.445539
	5.030000	0.616552
	5.035000	0.685615
	5.040000	0.517891
	5.045000	0.442250
	5.050000	0.613263
	5.055000	0.682327
	5.060000	0.514602
	5.065000	0.442250
	5.070000	0.613263
	5.075000	0.682327
	5.080000	0.511313
	5.085000	0.445539
	5.090000	0.613263
	5.095000	0.682327
	5.100000	0.508024
	5.105000	0.448827
	5.110000	0.613263
	5.115000	0.685615
	5.120000	0.511313
	5.125000	0.445539
	5.130000	0.613263
	5.135000	0.682327
	5.140000	0.511313
	5.145000	0.448827
	5.150000	0.616552
	5.155000	0.682327
	5.160000	0.514602
	5.165000	0.442250
	5.170000	0.613263
	5.175000	0.682327
	5.180000	0.511313
	5.185000	0.445539
	5.190000	0.613263
	5.195000	0.679038
	5.200000	0.511313
	5.205000	0.442250
	5.210000	0.613263
	5.215000	0.682327
	5.220000	0.508024
	5.225000	0.445539
	5.230000	0.616552
	5.235000	0.679038
	5.240000	0.511313
	5.245000	0.445539
	5.250000	0.616552
	5.255000	0.682327
	5.260000	0.508024
	5.265000	0.442250
	5.270000	0.619841
	5.275000	0.682327
	5.280000	0.504736
	5.285000	0.442250
	5.290000	0.616552
	5.295000	0.675749
	5.300000	0.504736
	5.305000	0.448827
	5.310000	0.616552
	5.315000	0.679038
	5.320000	0.508024
	5.325000	0.442250
	5.330000	0.619841
	5.335000	0.685615
	5.340000	0.508024
	5.345000	0.445539
	5.350000	0.619841
	5.355000	0.679038
	5.360000	0.504736
	5.365000	0.445539
	5.370000	0.619841
	5.375000	0.679038
	5.380000	0.508024
	5.385000	0.442250
	5.390000	0.616552
	5.395000	0.675749
	5.400000	0.508024
	5.405000	0.442250
	5.410000	0.609975
	5.415000	0.675749
	5.420000	0.504736
	5.425000	0.445539
	5.430000	0.616552
	5.435000	0.675749
	5.440000	0.501447
	5.445000	0.445539
	5.450000	0.616552
	5.455000	0.675749
	5.460000	0.501447
	5.465000	0.445539
	5.470000	0.613263
	5.475000	0.672460
	5.480000	0.501447
	5.485000	0.445539
	5.490000	0.616552
	5.495000	0.675749
	5.500000	0.498158
	5.505000	0.442250
	5.510000	0.616552
	5.515000	0.679038
	5.520000	0.498158
	5.525000	0.442250
	5.530000	0.616552
	5.535000	0.672460
	5.540000	0.498158
	5.545000	0.442250
	5.550000	0.619841
	5.555000	0.675749
	5.560000	0.498158
	5.565000	0.445539
	5.570000	0.616552
	5.575000	0.672460
	5.580000	0.498158
	5.585000	0.448827
	5.590000	0.623130
	5.595000	0.675749
	5.600000	0.494869
	5.605000	0.448827
	5.610000	0.623130
	5.615000	0.679038
	5.620000	0.504736
	5.625000	0.452116
	5.630000	0.629707
	5.635000	0.679038
	5.640000	0.498158
	5.645000	0.452116
	5.650000	0.629707
	5.655000	0.688904
	5.660000	0.511313
	5.665000	0.461982
	5.670000	0.636285
	5.675000	0.688904
	5.680000	0.514602
	5.685000	0.468560
	5.690000	0.639573
	5.695000	0.688904
	5.700000	0.514602
	5.705000	0.465271
	5.710000	0.642862
	5.715000	0.688904
	5.720000	0.514602
	5.725000	0.465271
	5.730000	0.642862
	5.735000	0.688904
	5.740000	0.514602
	5.745000	0.468560
	5.750000	0.646151
	5.755000	0.685615
	5.760000	0.517891
	5.765000	0.468560
	5.770000	0.639573
	5.775000	0.688904
	5.780000	0.511313
	5.785000	0.465271
	5.790000	0.642862
	5.795000	0.692193
	5.800000	0.514602
	5.805000	0.471848
	5.810000	0.652728
	5.815000	0.695482
	5.820000	0.517891
	5.825000	0.471848
	5.830000	0.656017
	5.835000	0.702059
	5.840000	0.527757
	5.845000	0.485003
	5.850000	0.662594
	5.855000	0.708636
	5.860000	0.534334
	5.865000	0.488292
	5.870000	0.669172
	5.875000	0.711925
	5.880000	0.534334
	5.885000	0.488292
	5.890000	0.672460
	5.895000	0.711925
	5.900000	0.537623
	5.905000	0.494869
	5.910000	0.669172
	5.915000	0.711925
	5.920000	0.534334
	5.925000	0.488292
	5.930000	0.662594
	5.935000	0.702059
	5.940000	0.524468
	5.945000	0.481715
	5.950000	0.662594
	5.955000	0.695482
	5.960000	0.514602
	5.965000	0.485003
	5.970000	0.659306
	5.975000	0.702059
	5.980000	0.517891
	5.985000	0.478426
	5.990000	0.652728
	5.995000	0.692193
	6.000000	0.514602
	6.005000	0.478426
	6.010000	0.652728
	6.015000	0.688904
	6.020000	0.511313
	6.025000	0.475137
	6.030000	0.652728
	6.035000	0.685615
	6.040000	0.508024
	6.045000	0.468560
	6.050000	0.649439
	6.055000	0.682327
	6.060000	0.501447
	6.065000	0.471848
	6.070000	0.646151
	6.075000	0.682327
	6.080000	0.501447
	6.085000	0.468560
	6.090000	0.642862
	6.095000	0.679038
	6.100000	0.498158
	6.105000	0.461982
	6.110000	0.642862
	6.115000	0.679038
	6.120000	0.498158
	6.125000	0.465271
	6.130000	0.642862
	6.135000	0.679038
	6.140000	0.498158
	6.145000	0.465271
	6.150000	0.642862
	6.155000	0.672460
	6.160000	0.494869
	6.165000	0.461982
	6.170000	0.639573
	6.175000	0.672460
	6.180000	0.494869
	6.185000	0.458694
	6.190000	0.642862
	6.195000	0.672460
	6.200000	0.491581
	6.205000	0.455405
	6.210000	0.636285
	6.215000	0.672460
	6.220000	0.488292
	6.225000	0.458694
	6.230000	0.636285
	6.235000	0.669172
	6.240000	0.488292
	6.245000	0.455405
	6.250000	0.636285
	6.255000	0.669172
	6.260000	0.485003
	6.265000	0.455405
	6.270000	0.632996
	6.275000	0.665883
	6.280000	0.485003
	6.285000	0.455405
	6.290000	0.629707
	6.295000	0.656017
	6.300000	0.481715
	6.305000	0.448827
	6.310000	0.636285
	6.315000	0.665883
	6.320000	0.475137
	6.325000	0.452116
	6.330000	0.629707
	6.335000	0.656017
	6.340000	0.478426
	6.345000	0.452116
	6.350000	0.629707
	6.355000	0.656017
	6.360000	0.471848
	6.365000	0.452116
	6.370000	0.626418
	6.375000	0.652728
	6.380000	0.471848
	6.385000	0.452116
	6.390000	0.629707
	6.395000	0.656017
	6.400000	0.471848
	6.405000	0.448827
	6.410000	0.629707
	6.415000	0.659306
	6.420000	0.471848
	6.425000	0.448827
	6.430000	0.632996
	6.435000	0.652728
	6.440000	0.471848
	6.445000	0.452116
	6.450000	0.632996
	6.455000	0.656017
	6.460000	0.475137
	6.465000	0.448827
	6.470000	0.632996
	6.475000	0.656017
	6.480000	0.471848
	6.485000	0.448827
	6.490000	0.632996
	6.495000	0.656017
	6.500000	0.475137
	6.505000	0.445539
	6.510000	0.636285
	6.515000	0.652728
	6.520000	0.468560
	6.525000	0.448827
	6.530000	0.629707
	6.535000	0.656017
	6.540000	0.468560
	6.545000	0.445539
	6.550000	0.632996
	6.555000	0.649439
	6.560000	0.465271
	6.565000	0.448827
	6.570000	0.632996
	6.575000	0.656017
	6.580000	0.465271
	6.585000	0.445539
	6.590000	0.629707
	6.595000	0.649439
	6.600000	0.468560
	6.605000	0.452116
	6.610000	0.629707
	6.615000	0.652728
	6.620000	0.468560
	6.625000	0.452116
	6.630000	0.632996
	6.635000	0.646151
	6.640000	0.465271
	6.645000	0.452116
	6.650000	0.636285
	6.655000	0.652728
	6.660000	0.465271
	6.665000	0.448827
	6.670000	0.636285
	6.675000	0.652728
	6.680000	0.468560
	6.685000	0.448827
	6.690000	0.632996
	6.695000	0.646151
	6.700000	0.461982
	6.705000	0.452116
	6.710000	0.632996
	6.715000	0.646151
	6.720000	0.465271
	6.725000	0.452116
	6.730000	0.629707
	6.735000	0.649439
	6.740000	0.461982
	6.745000	0.452116
	6.750000	0.632996
	6.755000	0.646151
	6.760000	0.461982
	6.765000	0.448827
	6.770000	0.632996
	6.775000	0.642862
	6.780000	0.465271
	6.785000	0.455405
	6.790000	0.639573
	6.795000	0.642862
	6.800000	0.461982
	6.805000	0.452116
	6.810000	0.636285
	6.815000	0.646151
	6.820000	0.461982
	6.825000	0.452116
	6.830000	0.639573
	6.835000	0.646151
	6.840000	0.465271
	6.845000	0.452116
	6.850000	0.636285
	6.855000	0.646151
	6.860000	0.455405
	6.865000	0.448827
	6.870000	0.632996
	6.875000	0.642862
	6.880000	0.465271
	6.885000	0.452116
	6.890000	0.636285
	6.895000	0.639573
	6.900000	0.455405
	6.905000	0.452116
	6.910000	0.639573
	6.915000	0.646151
	6.920000	0.458694
	6.925000	0.452116
	6.930000	0.642862
	6.935000	0.642862
	6.940000	0.458694
	6.945000	0.452116
	6.950000	0.636285
	6.955000	0.642862
	6.960000	0.461982
	6.965000	0.455405
	6.970000	0.629707
	6.975000	0.639573
	6.980000	0.455405
	6.985000	0.458694
	6.990000	0.636285
	6.995000	0.639573
	7.000000	0.455405
	7.005000	0.452116
	7.010000	0.636285
	7.015000	0.636285
	7.020000	0.455405
	7.025000	0.455405
	7.030000	0.636285
	7.035000	0.646151
	7.040000	0.452116
	7.045000	0.452116
	7.050000	0.636285
	7.055000	0.632996
	7.060000	0.452116
	7.065000	0.452116
	7.070000	0.636285
	7.075000	0.639573
	7.080000	0.452116
	7.085000	0.455405
	7.090000	0.639573
	7.095000	0.636285
	7.100000	0.452116
	7.105000	0.452116
	7.110000	0.636285
	7.115000	0.632996
	7.120000	0.452116
	7.125000	0.452116
	7.130000	0.639573
	7.135000	0.636285
	7.140000	0.452116
	7.145000	0.452116
	7.150000	0.636285
	7.155000	0.636285
	7.160000	0.448827
	7.165000	0.458694
	7.170000	0.636285
	7.175000	0.632996
	7.180000	0.448827
	7.185000	0.455405
	7.190000	0.636285
	7.195000	0.629707
	7.200000	0.448827
	7.205000	0.458694
	7.210000	0.636285
	7.215000	0.629707
	7.220000	0.445539
	7.225000	0.458694
	7.230000	0.639573
	7.235000	0.629707
	7.240000	0.445539
	7.245000	0.455405
	7.250000	0.636285
	7.255000	0.636285
	7.260000	0.445539
	7.265000	0.455405
	7.270000	0.639573
	7.275000	0.629707
	7.280000	0.445539
	7.285000	0.458694
	7.290000	0.639573
	7.295000	0.623130
	7.300000	0.445539
	7.305000	0.455405
	7.310000	0.639573
	7.315000	0.626418
	7.320000	0.445539
	7.325000	0.455405
	7.330000	0.642862
	7.335000	0.626418
	7.340000	0.448827
	7.345000	0.455405
	7.350000	0.639573
	7.355000	0.623130
	7.360000	0.442250
	7.365000	0.455405
	7.370000	0.642862
	7.375000	0.626418
	7.380000	0.445539
	7.385000	0.458694
	7.390000	0.636285
	7.395000	0.623130
	7.400000	0.445539
	7.405000	0.458694
	7.410000	0.646151
	7.415000	0.623130
	7.420000	0.442250
	7.425000	0.455405
	7.430000	0.642862
	7.435000	0.626418
	7.440000	0.438961
	7.445000	0.458694
	7.450000	0.639573
	7.455000	0.623130
	7.460000	0.435672
	7.465000	0.455405
	7.470000	0.642862
	7.475000	0.623130
	7.480000	0.438961
	7.485000	0.455405
	7.490000	0.642862
	7.495000	0.619841
	7.500000	0.438961
	7.505000	0.458694
	7.510000	0.636285
	7.515000	0.623130
	7.520000	0.438961
	7.525000	0.461982
	7.530000	0.636285
	7.535000	0.619841
	7.540000	0.438961
	7.545000	0.458694
	7.550000	0.642862
	7.555000	0.619841
	7.560000	0.438961
	7.565000	0.458694
	7.570000	0.646151
	7.575000	0.623130
	7.580000	0.435672
	7.585000	0.455405
	7.590000	0.639573
	7.595000	0.619841
	7.600000	0.435672
	7.605000	0.461982
	7.610000	0.639573
	7.615000	0.619841
	7.620000	0.435672
	7.625000	0.461982
	7.630000	0.639573
	7.635000	0.616552
	7.640000	0.435672
	7.645000	0.461982
	7.650000	0.642862
	7.655000	0.619841
	7.660000	0.438961
	7.665000	0.465271
	7.670000	0.639573
	7.675000	0.616552
	7.680000	0.435672
	7.685000	0.465271
	7.690000	0.642862
	7.695000	0.619841
	7.700000	0.435672
	7.705000	0.461982
	7.710000	0.642862
	7.715000	0.616552
	7.720000	0.438961
	7.725000	0.465271
	7.730000	0.646151
	7.735000	0.613263
	7.740000	0.432384
	7.745000	0.465271
	7.750000	0.646151
	7.755000	0.616552
	7.760000	0.438961
	7.765000	0.471848
	7.770000	0.646151
	7.775000	0.619841
	7.780000	0.432384
	7.785000	0.465271
	7.790000	0.652728
	7.795000	0.609975
	7.800000	0.435672
	7.805000	0.465271
	7.810000	0.652728
	7.815000	0.609975
	7.820000	0.435672
	7.825000	0.465271
	7.830000	0.649439
	7.835000	0.616552
	7.840000	0.435672
	7.845000	0.468560
	7.850000	0.646151
	7.855000	0.616552
	7.860000	0.435672
	7.865000	0.471848
	7.870000	0.646151
	7.875000	0.616552
	7.880000	0.435672
	7.885000	0.468560
	7.890000	0.649439
	7.895000	0.616552
	7.900000	0.435672
	7.905000	0.468560
	7.910000	0.652728
	7.915000	0.616552
	7.920000	0.438961
	7.925000	0.475137
	7.930000	0.662594
	7.935000	0.632996
	7.940000	0.452116
	7.945000	0.498158
	7.950000	0.685615
	7.955000	0.649439
	7.960000	0.481715
	7.965000	0.521179
	7.970000	0.695482
	7.975000	0.662594
	7.980000	0.485003
	7.985000	0.524468
	7.990000	0.702059
	7.995000	0.669172
	8.000000	0.485003
	8.005000	0.517891
	8.010000	0.702059
	8.015000	0.659306
	8.020000	0.475137
	8.025000	0.517891
	8.030000	0.688904
	8.035000	0.646151
	8.040000	0.471848
	8.045000	0.511313
	8.050000	0.682327
	8.055000	0.639573
	8.060000	0.455405
	8.065000	0.498158
	8.070000	0.675749
	8.075000	0.629707
	8.080000	0.445539
	8.085000	0.485003
	8.090000	0.659306
	8.095000	0.613263
	8.100000	0.432384
	8.105000	0.475137
	8.110000	0.649439
	8.115000	0.603397
	8.120000	0.425806
	8.125000	0.468560
	8.130000	0.649439
	8.135000	0.600109
	8.140000	0.422518
	8.145000	0.465271
	8.150000	0.642862
	8.155000	0.596820
	8.160000	0.419229
	8.165000	0.465271
	8.170000	0.642862
	8.175000	0.596820
	8.180000	0.415940
	8.185000	0.465271
	8.190000	0.642862
	8.195000	0.596820
	8.200000	0.415940
	8.205000	0.468560
	8.210000	0.639573
	8.215000	0.596820
	8.220000	0.425806
	8.225000	0.468560
	8.230000	0.646151
	8.235000	0.596820
	8.240000	0.419229
	8.245000	0.468560
	8.250000	0.646151
	8.255000	0.593531
	8.260000	0.422518
	8.265000	0.471848
	8.270000	0.649439
	8.275000	0.603397
	8.280000	0.422518
	8.285000	0.478426
	8.290000	0.649439
	8.295000	0.600109
	8.300000	0.425806
	8.305000	0.478426
	8.310000	0.656017
	8.315000	0.609975
	8.320000	0.425806
	8.325000	0.485003
	8.330000	0.656017
	8.335000	0.603397
	8.340000	0.425806
	8.345000	0.485003
	8.350000	0.656017
	8.355000	0.603397
	8.360000	0.432384
	8.365000	0.481715
	8.370000	0.656017
	8.375000	0.609975
	8.380000	0.432384
	8.385000	0.485003
	8.390000	0.662594
	8.395000	0.606686
	8.400000	0.432384
	8.405000	0.491581
	8.410000	0.665883
	8.415000	0.609975
	8.420000	0.432384
	8.425000	0.491581
	8.430000	0.669172
	8.435000	0.606686
	8.440000	0.435672
	8.445000	0.488292
	8.450000	0.669172
	8.455000	0.606686
	8.460000	0.435672
	8.465000	0.491581
	8.470000	0.665883
	8.475000	0.609975
	8.480000	0.432384
	8.485000	0.494869
	8.490000	0.665883
	8.495000	0.606686
	8.500000	0.432384
	8.505000	0.494869
	8.510000	0.662594
	8.515000	0.603397
	8.520000	0.429095
	8.525000	0.494869
	8.530000	0.662594
	8.535000	0.603397
	8.540000	0.429095
	8.545000	0.488292
	8.550000	0.662594
	8.555000	0.603397
	8.560000	0.429095
	8.565000	0.494869
	8.570000	0.665883
	8.575000	0.596820
	8.580000	0.425806
	8.585000	0.491581
	8.590000	0.662594
	8.595000	0.603397
	8.600000	0.425806
	8.605000	0.485003
	8.610000	0.662594
	8.615000	0.600109
	8.620000	0.432384
	8.625000	0.488292
	8.630000	0.665883
	8.635000	0.596820
	8.640000	0.425806
	8.645000	0.494869
	8.650000	0.662594
	8.655000	0.600109
	8.660000	0.425806
	8.665000	0.494869
	8.670000	0.662594
	8.675000	0.596820
	8.680000	0.425806
	8.685000	0.491581
	8.690000	0.659306
	8.695000	0.593531
	8.700000	0.425806
	8.705000	0.491581
	8.710000	0.659306
	8.715000	0.593531
	8.720000	0.419229
	8.725000	0.488292
	8.730000	0.659306
	8.735000	0.590242
	8.740000	0.419229
	8.745000	0.485003
	8.750000	0.656017
	8.755000	0.583665
	8.760000	0.415940
	8.765000	0.485003
	8.770000	0.652728
	8.775000	0.583665
	8.780000	0.412651
	8.785000	0.485003
	8.790000	0.649439
	8.795000	0.586954
	8.800000	0.409363
	8.805000	0.481715
	8.810000	0.649439
	8.815000	0.573799
	8.820000	0.409363
	8.825000	0.475137
	8.830000	0.646151
	8.835000	0.573799
	8.840000	0.406074
	8.845000	0.475137
	8.850000	0.642862
	8.855000	0.567221
	8.860000	0.402785
	8.865000	0.478426
	8.870000	0.642862
	8.875000	0.570510
	8.880000	0.402785
	8.885000	0.475137
	8.890000	0.639573
	8.895000	0.567221
	8.900000	0.396208
	8.905000	0.475137
	8.910000	0.642862
	8.915000	0.563933
	8.920000	0.396208
	8.925000	0.471848
	8.930000	0.636285
	8.935000	0.563933
	8.940000	0.399496
	8.945000	0.475137
	8.950000	0.639573
	8.955000	0.567221
	8.960000	0.396208
	8.965000	0.475137
	8.970000	0.636285
	8.975000	0.560644
	8.980000	0.392919
	8.985000	0.475137
	8.990000	0.636285
	8.995000	0.567221
	9.000000	0.392919
	9.005000	0.475137
	9.010000	0.636285
	9.015000	0.557355
	9.020000	0.392919
	9.025000	0.478426
	9.030000	0.636285
	9.035000	0.560644
	9.040000	0.396208
	9.045000	0.471848
	9.050000	0.639573
	9.055000	0.560644
	9.060000	0.396208
	9.065000	0.478426
	9.070000	0.642862
	9.075000	0.563933
	9.080000	0.399496
	9.085000	0.481715
	9.090000	0.642862
	9.095000	0.557355
	9.100000	0.396208
	9.105000	0.478426
	9.110000	0.639573
	9.115000	0.557355
	9.120000	0.396208
	9.125000	0.478426
	9.130000	0.642862
	9.135000	0.557355
	9.140000	0.392919
	9.145000	0.485003
	9.150000	0.642862
	9.155000	0.554066
	9.160000	0.389630
	9.165000	0.481715
	9.170000	0.639573
	9.175000	0.554066
	9.180000	0.399496
	9.185000	0.485003
	9.190000	0.642862
	9.195000	0.557355
	9.200000	0.392919
	9.205000	0.481715
	9.210000	0.646151
	9.215000	0.554066
	9.220000	0.396208
	9.225000	0.488292
	9.230000	0.649439
	9.235000	0.560644
	9.240000	0.392919
	9.245000	0.481715
	9.250000	0.649439
	9.255000	0.557355
	9.260000	0.396208
	9.265000	0.485003
	9.270000	0.646151
	9.275000	0.560644
	9.280000	0.399496
	9.285000	0.491581
	9.290000	0.649439
	9.295000	0.554066
	9.300000	0.399496
	9.305000	0.491581
	9.310000	0.652728
	9.315000	0.560644
	9.320000	0.399496
	9.325000	0.494869
	9.330000	0.652728
	9.335000	0.554066
	9.340000	0.399496
	9.345000	0.491581
	9.350000	0.646151
	9.355000	0.560644
	9.360000	0.402785
	9.365000	0.494869
	9.370000	0.652728
	9.375000	0.557355
	9.380000	0.399496
	9.385000	0.488292
	9.390000	0.652728
	9.395000	0.557355
	9.400000	0.392919
	9.405000	0.491581
	9.410000	0.646151
	9.415000	0.557355
	9.420000	0.399496
	9.425000	0.491581
	9.430000	0.646151
	9.435000	0.554066
	9.440000	0.396208
	9.445000	0.494869
	9.450000	0.646151
	9.455000	0.550778
	9.460000	0.396208
	9.465000	0.491581
	9.470000	0.646151
	9.475000	0.554066
	9.480000	0.392919
	9.485000	0.491581
	9.490000	0.646151
	9.495000	0.550778
	9.500000	0.389630
	9.505000	0.488292
	9.510000	0.646151
	9.515000	0.550778
	9.520000	0.399496
	9.525000	0.494869
	9.530000	0.646151
	9.535000	0.547489
	9.540000	0.392919
	9.545000	0.494869
	9.550000	0.649439
	9.555000	0.550778
	9.560000	0.392919
	9.565000	0.494869
	9.570000	0.646151
	9.575000	0.547489
	9.580000	0.392919
	9.585000	0.488292
	9.590000	0.646151
	9.595000	0.544200
	9.600000	0.386342
	9.605000	0.488292
	9.610000	0.646151
	9.615000	0.540912
	9.620000	0.389630
	9.625000	0.491581
	9.630000	0.646151
	9.635000	0.544200
	9.640000	0.386342
	9.645000	0.494869
	9.650000	0.649439
	9.655000	0.544200
	9.660000	0.392919
	9.665000	0.491581
	9.670000	0.646151
	9.675000	0.544200
	9.680000	0.386342
	9.685000	0.494869
	9.690000	0.646151
	9.695000	0.540912
	9.700000	0.383053
	9.705000	0.491581
	9.710000	0.642862
	9.715000	0.537623
	9.720000	0.386342
	9.725000	0.491581
	9.730000	0.642862
	9.735000	0.540912
	9.740000	0.386342
	9.745000	0.491581
	9.750000	0.639573
	9.755000	0.537623
	9.760000	0.383053
	9.765000	0.494869
	9.770000	0.642862
	9.775000	0.540912
	9.780000	0.383053
	9.785000	0.491581
	9.790000	0.642862
	9.795000	0.537623
	9.800000	0.383053
	9.805000	0.494869
	9.810000	0.639573
	9.815000	0.534334
	9.820000	0.386342
	9.825000	0.491581
	9.830000	0.639573
	9.835000	0.531045
	9.840000	0.386342
	9.845000	0.494869
	9.850000	0.639573
	9.855000	0.534334
	9.860000	0.383053
	9.865000	0.498158
	9.870000	0.642862
	9.875000	0.531045
	9.880000	0.379764
	9.885000	0.491581
	9.890000	0.639573
	9.895000	0.527757
	9.900000	0.379764
	9.905000	0.491581
	9.910000	0.639573
	9.915000	0.527757
	9.920000	0.383053
	9.925000	0.494869
	9.930000	0.636285
	9.935000	0.527757
	9.940000	0.386342
	9.945000	0.494869
	9.950000	0.636285
	9.955000	0.527757
	9.960000	0.379764
	9.965000	0.498158
	9.970000	0.642862
	9.975000	0.531045
	9.980000	0.379764
	9.985000	0.498158
	9.990000	0.642862
	9.995000	0.524468
	10.000000	0.379764
	10.005000	0.498158
	10.010000	0.649439
	10.015000	0.531045
	10.020000	0.386342
	10.025000	0.498158
	10.030000	0.639573
	10.035000	0.531045
	10.040000	0.383053
	10.045000	0.504736
	10.050000	0.642862
	10.055000	0.524468
	10.060000	0.379764
	10.065000	0.498158
	10.070000	0.642862
	10.075000	0.527757
	10.080000	0.386342
	10.085000	0.501447
	10.090000	0.642862
	10.095000	0.531045
	10.100000	0.383053
	10.105000	0.501447
	10.110000	0.642862
	10.115000	0.534334
	10.120000	0.386342
	10.125000	0.504736
	10.130000	0.642862
	10.135000	0.527757
	10.140000	0.386342
	10.145000	0.504736
	10.150000	0.642862
	10.155000	0.527757
	10.160000	0.386342
	10.165000	0.501447
	10.170000	0.642862
	10.175000	0.527757
	10.180000	0.389630
	10.185000	0.501447
	10.190000	0.639573
	10.195000	0.527757
	10.200000	0.386342
	10.205000	0.504736
	10.210000	0.642862
	10.215000	0.521179
	10.220000	0.383053
	10.225000	0.504736
	10.230000	0.642862
	10.235000	0.521179
	10.240000	0.379764
	10.245000	0.501447
	10.250000	0.646151
	10.255000	0.521179
	10.260000	0.383053
	10.265000	0.504736
	10.270000	0.642862
	10.275000	0.517891
	10.280000	0.386342
	10.285000	0.504736
	10.290000	0.642862
	10.295000	0.521179
	10.300000	0.379764
	10.305000	0.504736
	10.310000	0.646151
	10.315000	0.517891
	10.320000	0.383053
	10.325000	0.508024
	10.330000	0.646151
	10.335000	0.517891
	10.340000	0.383053
	10.345000	0.511313
	10.350000	0.642862
	10.355000	0.517891
	10.360000	0.379764
	10.365000	0.508024
	10.370000	0.642862
	10.375000	0.517891
	10.380000	0.386342
	10.385000	0.508024
	10.390000	0.642862
	10.395000	0.517891
	10.400000	0.383053
	10.405000	0.508024
	10.410000	0.642862
	10.415000	0.511313
	10.420000	0.383053
	10.425000	0.508024
	10.430000	0.642862
	10.435000	0.514602
	10.440000	0.379764
	10.445000	0.508024
	10.450000	0.639573
	10.455000	0.517891
	10.460000	0.373187
	10.465000	0.508024
	10.470000	0.639573
	10.475000	0.517891
	10.480000	0.379764
	10.485000	0.504736
	10.490000	0.636285
	10.495000	0.514602
	10.500000	0.379764
	10.505000	0.508024
	10.510000	0.636285
	10.515000	0.504736
	10.520000	0.379764
	10.525000	0.504736
	10.530000	0.642862
	10.535000	0.508024
	10.540000	0.376475
	10.545000	0.508024
	10.550000	0.639573
	10.555000	0.511313
	10.560000	0.373187
	10.565000	0.511313
	10.570000	0.642862
	10.575000	0.504736
	10.580000	0.376475
	10.585000	0.504736
	10.590000	0.639573
	10.595000	0.508024
	10.600000	0.379764
	10.605000	0.511313
	10.610000	0.642862
	10.615000	0.504736
	10.620000	0.379764
	10.625000	0.508024
	10.630000	0.636285
	10.635000	0.508024
	10.640000	0.376475
	10.645000	0.511313
	10.650000	0.636285
	10.655000	0.504736
	10.660000	0.376475
	10.665000	0.508024
	10.670000	0.632996
	10.675000	0.501447
	10.680000	0.369898
	10.685000	0.508024
	10.690000	0.636285
	10.695000	0.504736
	10.700000	0.379764
	10.705000	0.508024
	10.710000	0.636285
	10.715000	0.504736
	10.720000	0.373187
	10.725000	0.511313
	10.730000	0.639573
	10.735000	0.501447
	10.740000	0.373187
	10.745000	0.511313
	10.750000	0.636285
	10.755000	0.501447
	10.760000	0.376475
	10.765000	0.511313
	10.770000	0.639573
	10.775000	0.508024
	10.780000	0.379764
	10.785000	0.514602
	10.790000	0.639573
	10.795000	0.508024
	10.800000	0.379764
	10.805000	0.514602
	10.810000	0.642862
	10.815000	0.501447
	10.820000	0.383053
	10.825000	0.514602
	10.830000	0.639573
	10.835000	0.504736
	10.840000	0.379764
	10.845000	0.517891
	10.850000	0.642862
	10.855000	0.504736
	10.860000	0.379764
	10.865000	0.517891
	10.870000	0.639573
	10.875000	0.501447
	10.880000	0.379764
	10.885000	0.517891
	10.890000	0.636285
	10.895000	0.498158
	10.900000	0.379764
	10.905000	0.517891
	10.910000	0.642862
	10.915000	0.501447
	10.920000	0.379764
	10.925000	0.514602
	10.930000	0.639573
	10.935000	0.498158
	10.940000	0.379764
	10.945000	0.524468
	10.950000	0.636285
	10.955000	0.498158
	10.960000	0.379764
	10.965000	0.517891
	10.970000	0.642862
	10.975000	0.508024
	10.980000	0.383053
	10.985000	0.521179
	10.990000	0.639573
	10.995000	0.504736
	11.000000	0.379764
	11.005000	0.524468
	11.010000	0.642862
	11.015000	0.501447
	11.020000	0.379764
	11.025000	0.527757
	11.030000	0.642862
	11.035000	0.501447
	11.040000	0.386342
	11.045000	0.524468
	11.050000	0.642862
	11.055000	0.501447
	11.060000	0.379764
	11.065000	0.524468
	11.070000	0.639573
	11.075000	0.498158
	11.080000	0.386342
	11.085000	0.527757
	11.090000	0.642862
	11.095000	0.498158
	11.100000	0.383053
	11.105000	0.527757
	11.110000	0.642862
	11.115000	0.498158
	11.120000	0.383053
	11.125000	0.524468
	11.130000	0.642862
	11.135000	0.504736
	11.140000	0.386342
	11.145000	0.524468
	11.150000	0.642862
	11.155000	0.498158
	11.160000	0.386342
	11.165000	0.524468
	11.170000	0.639573
	11.175000	0.498158
	11.180000	0.379764
	11.185000	0.531045
	11.190000	0.642862
	11.195000	0.494869
	11.200000	0.379764
	11.205000	0.527757
	11.210000	0.639573
	11.215000	0.494869
	11.220000	0.383053
	11.225000	0.527757
	11.230000	0.639573
	11.235000	0.491581
	11.240000	0.383053
	11.245000	0.531045
	11.250000	0.636285
	11.255000	0.491581
	11.260000	0.376475
	11.265000	0.524468
	11.270000	0.636285
	11.275000	0.488292
	11.280000	0.379764
	11.285000	0.527757
	11.290000	0.636285
	11.295000	0.485003
	11.300000	0.376475
	11.305000	0.517891
	11.310000	0.632996
	11.315000	0.488292
	11.320000	0.373187
	11.325000	0.521179
	11.330000	0.632996
	11.335000	0.488292
	11.340000	0.373187
	11.345000	0.527757
	11.350000	0.632996
	11.355000	0.485003
	11.360000	0.373187
	11.365000	0.521179
	11.370000	0.629707
	11.375000	0.478426
	11.380000	0.369898
	11.385000	0.521179
	11.390000	0.626418
	11.395000	0.475137
	11.400000	0.369898
	11.405000	0.521179
	11.410000	0.629707
	11.415000	0.478426
	11.420000	0.369898
	11.425000	0.517891
	11.430000	0.626418
	11.435000	0.471848
	11.440000	0.360032
	11.445000	0.514602
	11.450000	0.623130
	11.455000	0.471848
	11.460000	0.363321
	11.465000	0.514602
	11.470000	0.619841
	11.475000	0.468560
	11.480000	0.360032
	11.485000	0.511313
	11.490000	0.619841
	11.495000	0.471848
	11.500000	0.366609
	11.505000	0.514602
	11.510000	0.613263
	11.515000	0.468560
	11.520000	0.363321
	11.525000	0.511313
	11.530000	0.616552
	11.535000	0.461982
	11.540000	0.360032
	11.545000	0.511313
	11.550000	0.616552
	11.555000	0.468560
	11.560000	0.363321
	11.565000	0.517891
	11.570000	0.616552
	11.575000	0.468560
	11.580000	0.360032
	11.585000	0.514602
	11.590000	0.616552
	11.595000	0.465271
	11.600000	0.366609
	11.605000	0.517891
	11.610000	0.623130
	11.615000	0.468560
	11.620000	0.363321
	11.625000	0.514602
	11.630000	0.619841
	11.635000	0.465271
	11.640000	0.366609
	11.645000	0.517891
	11.650000	0.619841
	11.655000	0.465271
	11.660000	0.363321
	11.665000	0.521179
	11.670000	0.616552
	11.675000	0.458694
	11.680000	0.366609
	11.685000	0.517891
	11.690000	0.619841
	11.695000	0.465271
	11.700000	0.363321
	11.705000	0.521179
	11.710000	0.619841
	11.715000	0.461982
	11.720000	0.360032
	11.725000	0.517891
	11.730000	0.616552
	11.735000	0.461982
	11.740000	0.360032
	11.745000	0.521179
	11.750000	0.609975
	11.755000	0.458694
	11.760000	0.363321
	11.765000	0.521179
	11.770000	0.616552
	11.775000	0.455405
	11.780000	0.360032
	11.785000	0.517891
	11.790000	0.616552
	11.795000	0.458694
	11.800000	0.363321
	11.805000	0.521179
	11.810000	0.613263
	11.815000	0.455405
	11.820000	0.360032
	11.825000	0.521179
	11.830000	0.609975
	11.835000	0.452116
	11.840000	0.356743
	11.845000	0.521179
	11.850000	0.609975
	11.855000	0.448827
	11.860000	0.363321
	11.865000	0.517891
	11.870000	0.606686
	11.875000	0.448827
	11.880000	0.353454
	11.885000	0.517891
	11.890000	0.613263
	11.895000	0.452116
	11.900000	0.356743
	11.905000	0.521179
	11.910000	0.609975
	11.915000	0.452116
	11.920000	0.360032
	11.925000	0.517891
	11.930000	0.609975
	11.935000	0.448827
	11.940000	0.360032
	11.945000	0.517891
	11.950000	0.609975
	11.955000	0.448827
	11.960000	0.360032
	11.965000	0.517891
	11.970000	0.609975
	11.975000	0.448827
	11.980000	0.360032
	11.985000	0.517891
	11.990000	0.606686
	11.995000	0.448827
	12.000000	0.350166
	12.005000	0.521179
	12.010000	0.603397
	12.015000	0.445539
	12.020000	0.356743
	12.025000	0.521179
	12.030000	0.606686
	12.035000	0.442250
	12.040000	0.353454
	12.045000	0.521179
	12.050000	0.603397
	12.055000	0.442250
	12.060000	0.353454
	12.065000	0.521179
	12.070000	0.600109
	12.075000	0.442250
	12.080000	0.356743
	12.085000	0.517891
	12.090000	0.606686
	12.095000	0.442250
	12.100000	0.350166
	12.105000	0.514602
	12.110000	0.600109
	12.115000	0.438961
	12.120000	0.353454
	12.125000	0.517891
	12.130000	0.606686
	12.135000	0.432384
	12.140000	0.356743
	12.145000	0.514602
	12.150000	0.603397
	12.155000	0.435672
	12.160000	0.356743
	12.165000	0.514602
	12.170000	0.603397
	12.175000	0.432384
	12.180000	0.353454
	12.185000	0.517891
	12.190000	0.600109
	12.195000	0.442250
	12.200000	0.350166
	12.205000	0.521179
	12.210000	0.600109
	12.215000	0.429095
	12.220000	0.356743
	12.225000	0.517891
	12.230000	0.596820
	12.235000	0.435672
	12.240000	0.353454
	12.245000	0.517891
	12.250000	0.600109
	12.255000	0.432384
	12.260000	0.353454
	12.265000	0.521179
	12.270000	0.600109
	12.275000	0.432384
	12.280000	0.353454
	12.285000	0.514602
	12.290000	0.596820
	12.295000	0.432384
	12.300000	0.350166
	12.305000	0.521179
	12.310000	0.596820
	12.315000	0.425806
	12.320000	0.350166
	12.325000	0.517891
	12.330000	0.596820
	12.335000	0.429095
	12.340000	0.353454
	12.345000	0.517891
	12.350000	0.596820
	12.355000	0.429095
	12.360000	0.350166
	12.365000	0.521179
	12.370000	0.596820
	12.375000	0.425806
	12.380000	0.353454
	12.385000	0.524468
	12.390000	0.600109
	12.395000	0.422518
	12.400000	0.353454
	12.405000	0.517891
	12.410000	0.596820
	12.415000	0.429095
	12.420000	0.350166
	12.425000	0.524468
	12.430000	0.593531
	12.435000	0.425806
	12.440000	0.350166
	12.445000	0.517891
	12.450000	0.593531
	12.455000	0.425806
	12.460000	0.350166
	12.465000	0.524468
	12.470000	0.593531
	12.475000	0.422518
	12.480000	0.353454
	12.485000	0.521179
	12.490000	0.596820
	12.495000	0.422518
	12.500000	0.350166
	12.505000	0.524468
	12.510000	0.590242
	12.515000	0.422518
	12.520000	0.353454
	12.525000	0.527757
	12.530000	0.593531
	12.535000	0.422518
	12.540000	0.356743
	12.545000	0.524468
	12.550000	0.596820
	12.555000	0.419229
	12.560000	0.346877
	12.565000	0.521179
	12.570000	0.593531
	12.575000	0.422518
	12.580000	0.350166
	12.585000	0.521179
	12.590000	0.593531
	12.595000	0.415940
	12.600000	0.350166
	12.605000	0.524468
	12.610000	0.590242
	12.615000	0.419229
	12.620000	0.346877
	12.625000	0.524468
	12.630000	0.590242
	12.635000	0.415940
	12.640000	0.350166
	12.645000	0.521179
	12.650000	0.586954
	12.655000	0.419229
	12.660000	0.353454
	12.665000	0.521179
	12.670000	0.590242
	12.675000	0.415940
	12.680000	0.353454
	12.685000	0.517891
	12.690000	0.583665
	12.695000	0.412651
	12.700000	0.346877
	12.705000	0.521179
	12.710000	0.586954
	12.715000	0.412651
	12.720000	0.346877
	12.725000	0.521179
	12.730000	0.583665
	12.735000	0.409363
	12.740000	0.350166
	12.745000	0.527757
	12.750000	0.583665
	12.755000	0.406074
	12.760000	0.350166
	12.765000	0.524468
	12.770000	0.586954
	12.775000	0.409363
	12.780000	0.350166
	12.785000	0.524468
	12.790000	0.580376
	12.795000	0.406074
	12.800000	0.346877
	12.805000	0.524468
	12.810000	0.580376
	12.815000	0.409363
	12.820000	0.350166
	12.825000	0.524468
	12.830000	0.583665
	12.835000	0.402785
	12.840000	0.346877
	12.845000	0.524468
	12.850000	0.580376
	12.855000	0.399496
	12.860000	0.346877
	12.865000	0.524468
	12.870000	0.583665
	12.875000	0.409363
	12.880000	0.350166
	12.885000	0.524468
	12.890000	0.580376
	12.895000	0.409363
	12.900000	0.353454
	12.905000	0.527757
	12.910000	0.590242
	12.915000	0.412651
	12.920000	0.353454
	12.925000	0.531045
	12.930000	0.586954
	12.935000	0.409363
	12.940000	0.353454
	12.945000	0.531045
	12.950000	0.583665
	12.955000	0.409363
	12.960000	0.353454
	12.965000	0.524468
	12.970000	0.580376
	12.975000	0.406074
	12.980000	0.350166
	12.985000	0.527757
	12.990000	0.580376
	12.995000	0.406074
	13.000000	0.350166
	13.005000	0.527757
	13.010000	0.583665
	13.015000	0.406074
	13.020000	0.346877
	13.025000	0.527757
	13.030000	0.580376
	13.035000	0.406074
	13.040000	0.346877
	13.045000	0.527757
	13.050000	0.577088
	13.055000	0.399496
	13.060000	0.353454
	13.065000	0.527757
	13.070000	0.573799
	13.075000	0.399496
	13.080000	0.350166
	13.085000	0.531045
	13.090000	0.573799
	13.095000	0.402785
	13.100000	0.350166
	13.105000	0.534334
	13.110000	0.583665
	13.115000	0.402785
	13.120000	0.353454
	13.125000	0.531045
	13.130000	0.577088
	13.135000	0.399496
	13.140000	0.356743
	13.145000	0.531045
	13.150000	0.580376
	13.155000	0.402785
	13.160000	0.356743
	13.165000	0.534334
	13.170000	0.577088
	13.175000	0.402785
	13.180000	0.360032
	13.185000	0.540912
	13.190000	0.583665
	13.195000	0.402785
	13.200000	0.356743
	13.205000	0.540912
	13.210000	0.577088
	13.215000	0.399496
	13.220000	0.353454
	13.225000	0.537623
	13.230000	0.580376
	13.235000	0.399496
	13.240000	0.360032
	13.245000	0.534334
	13.250000	0.577088
	13.255000	0.396208
	13.260000	0.360032
	13.265000	0.537623
	13.270000	0.580376
	13.275000	0.396208
	13.280000	0.353454
	13.285000	0.544200
	13.290000	0.580376
	13.295000	0.399496
	13.300000	0.360032
	13.305000	0.537623
	13.310000	0.580376
	13.315000	0.399496
	13.320000	0.356743
	13.325000	0.534334
	13.330000	0.580376
	13.335000	0.396208
	13.340000	0.356743
	13.345000	0.540912
	13.350000	0.577088
	13.355000	0.396208
	13.360000	0.356743
	13.365000	0.540912
	13.370000	0.573799
	13.375000	0.392919
	13.380000	0.360032
	13.385000	0.537623
	13.390000	0.577088
	13.395000	0.399496
	13.400000	0.356743
	13.405000	0.540912
	13.410000	0.573799
	13.415000	0.392919
	13.420000	0.356743
	13.425000	0.537623
	13.430000	0.570510
	13.435000	0.402785
	13.440000	0.360032
	13.445000	0.540912
	13.450000	0.577088
	13.455000	0.396208
	13.460000	0.356743
	13.465000	0.544200
	13.470000	0.577088
	13.475000	0.392919
	13.480000	0.360032
	13.485000	0.547489
	13.490000	0.573799
	13.495000	0.396208
	13.500000	0.356743
	13.505000	0.544200
	13.510000	0.567221
	13.515000	0.392919
	13.520000	0.363321
	13.525000	0.547489
	13.530000	0.573799
	13.535000	0.392919
	13.540000	0.356743
	13.545000	0.540912
	13.550000	0.573799
	13.555000	0.389630
	13.560000	0.366609
	13.565000	0.544200
	13.570000	0.573799
	13.575000	0.389630
	13.580000	0.363321
	13.585000	0.550778
	13.590000	0.573799
	13.595000	0.389630
	13.600000	0.360032
	13.605000	0.544200
	13.610000	0.573799
	13.615000	0.392919
	13.620000	0.366609
	13.625000	0.544200
	13.630000	0.567221
	13.635000	0.386342
	13.640000	0.363321
	13.645000	0.540912
	13.650000	0.577088
	13.655000	0.386342
	13.660000	0.360032
	13.665000	0.544200
	13.670000	0.563933
	13.675000	0.389630
	13.680000	0.366609
	13.685000	0.547489
	13.690000	0.563933
	13.695000	0.386342
	13.700000	0.356743
	13.705000	0.537623
	13.710000	0.567221
	13.715000	0.383053
	13.720000	0.363321
	13.725000	0.540912
	13.730000	0.563933
	13.735000	0.383053
	13.740000	0.356743
	13.745000	0.537623
	13.750000	0.563933
	13.755000	0.383053
	13.760000	0.360032
	13.765000	0.540912
	13.770000	0.563933
	13.775000	0.376475
	13.780000	0.356743
	13.785000	0.540912
	13.790000	0.560644
	13.795000	0.376475
	13.800000	0.353454
	13.805000	0.540912
	13.810000	0.563933
	13.815000	0.376475
	13.820000	0.353454
	13.825000	0.540912
	13.830000	0.557355
	13.835000	0.376475
	13.840000	0.353454
	13.845000	0.537623
	13.850000	0.554066
	13.855000	0.373187
	13.860000	0.350166
	13.865000	0.540912
	13.870000	0.550778
	13.875000	0.373187
	13.880000	0.353454
	13.885000	0.537623
	13.890000	0.554066
	13.895000	0.369898
	13.900000	0.353454
	13.905000	0.534334
	13.910000	0.554066
	13.915000	0.363321
	13.920000	0.353454
	13.925000	0.531045
	13.930000	0.550778
	13.935000	0.366609
	13.940000	0.350166
	13.945000	0.527757
	13.950000	0.550778
	13.955000	0.360032
	13.960000	0.353454
	13.965000	0.531045
	13.970000	0.544200
	13.975000	0.356743
	13.980000	0.343588
	13.985000	0.531045
	13.990000	0.544200
	13.995000	0.356743
	14.000000	0.350166
	14.005000	0.534334
	14.010000	0.540912
	14.015000	0.356743
	14.020000	0.343588
	14.025000	0.534334
	14.030000	0.540912
	14.035000	0.356743
	14.040000	0.350166
	14.045000	0.534334
	14.050000	0.544200
	14.055000	0.356743
	14.060000	0.350166
	14.065000	0.534334
	14.070000	0.544200
	14.075000	0.360032
	14.080000	0.346877
	14.085000	0.531045
	14.090000	0.540912
	14.095000	0.353454
	14.100000	0.350166
	14.105000	0.531045
	14.110000	0.544200
	14.115000	0.356743
	14.120000	0.346877
	14.125000	0.531045
	14.130000	0.544200
	14.135000	0.356743
	14.140000	0.353454
	14.145000	0.534334
	14.150000	0.540912
	14.155000	0.360032
	14.160000	0.350166
	14.165000	0.531045
	14.170000	0.537623
	14.175000	0.353454
	14.180000	0.350166
	14.185000	0.537623
	14.190000	0.537623
	14.195000	0.353454
	14.200000	0.353454
	14.205000	0.537623
	14.210000	0.540912
	14.215000	0.353454
	14.220000	0.350166
	14.225000	0.531045
	14.230000	0.537623
	14.235000	0.353454
	14.240000	0.346877
	14.245000	0.537623
	14.250000	0.534334
	14.255000	0.353454
	14.260000	0.350166
	14.265000	0.534334
	14.270000	0.540912
	14.275000	0.353454
	14.280000	0.346877
	14.285000	0.537623
	14.290000	0.537623
	14.295000	0.353454
	14.300000	0.346877
	14.305000	0.537623
	14.310000	0.537623
	14.315000	0.356743
	14.320000	0.350166
	14.325000	0.537623
	14.330000	0.534334
	14.335000	0.356743
	14.340000	0.350166
	14.345000	0.534334
	14.350000	0.534334
	14.355000	0.350166
	14.360000	0.350166
	14.365000	0.534334
	14.370000	0.534334
	14.375000	0.346877
	14.380000	0.350166
	14.385000	0.537623
	14.390000	0.531045
	14.395000	0.346877
	14.400000	0.346877
	14.405000	0.537623
	14.410000	0.531045
	14.415000	0.346877
	14.420000	0.350166
	14.425000	0.534334
	14.430000	0.531045
	14.435000	0.343588
	14.440000	0.350166
	14.445000	0.537623
	14.450000	0.531045
	14.455000	0.343588
	14.460000	0.353454
	14.465000	0.534334
	14.470000	0.531045
	14.475000	0.340299
	14.480000	0.350166
	14.485000	0.537623
	14.490000	0.527757
	14.495000	0.346877
	14.500000	0.353454
	14.505000	0.537623
	14.510000	0.524468
	14.515000	0.343588
	14.520000	0.350166
	14.525000	0.540912
	14.530000	0.527757
	14.535000	0.340299
	14.540000	0.350166
	14.545000	0.537623
	14.550000	0.524468
	14.555000	0.340299
	14.560000	0.350166
	14.565000	0.540912
	14.570000	0.524468
	14.575000	0.340299
	14.580000	0.353454
	14.585000	0.534334
	14.590000	0.527757
	14.595000	0.340299
	14.600000	0.353454
	14.605000	0.540912
	14.610000	0.521179
	14.615000	0.340299
	14.620000	0.353454
	14.625000	0.534334
	14.630000	0.527757
	14.635000	0.340299
	14.640000	0.356743
	14.645000	0.537623
	14.650000	0.527757
	14.655000	0.333722
	14.660000	0.350166
	14.665000	0.537623
	14.670000	0.521179
	14.675000	0.343588
	14.680000	0.353454
	14.685000	0.537623
	14.690000	0.524468
	14.695000	0.337011
	14.700000	0.356743
	14.705000	0.537623
	14.710000	0.524468
	14.715000	0.337011
	14.720000	0.353454
	14.725000	0.537623
	14.730000	0.524468
	14.735000	0.333722
	14.740000	0.353454
	14.745000	0.544200
	14.750000	0.517891
	14.755000	0.340299
	14.760000	0.360032
	14.765000	0.540912
	14.770000	0.531045
	14.775000	0.346877
	14.780000	0.366609
	14.785000	0.550778
	14.790000	0.534334
	14.795000	0.350166
	14.800000	0.369898
	14.805000	0.557355
	14.810000	0.537623
	14.815000	0.353454
	14.820000	0.373187
	14.825000	0.557355
	14.830000	0.537623
	14.835000	0.353454
	14.840000	0.373187
	14.845000	0.560644
	14.850000	0.537623
	14.855000	0.353454
	14.860000	0.376475
	14.865000	0.557355
	14.870000	0.534334
	14.875000	0.350166
	14.880000	0.376475
	14.885000	0.557355
	14.890000	0.534334
	14.895000	0.350166
	14.900000	0.376475
	14.905000	0.560644
	14.910000	0.540912
	14.915000	0.353454
	14.920000	0.376475
	14.925000	0.560644
	14.930000	0.537623
	14.935000	0.350166
	14.940000	0.373187
	14.945000	0.560644
	14.950000	0.531045
	14.955000	0.350166
	14.960000	0.376475
	14.965000	0.554066
	14.970000	0.524468
	14.975000	0.346877
	14.980000	0.369898
	14.985000	0.554066
	14.990000	0.527757
	14.995000	0.340299
	15.000000	0.366609
	15.005000	0.544200
	15.010000	0.524468
	15.015000	0.340299
	15.020000	0.366609
	15.025000	0.547489
	15.030000	0.517891
	15.035000	0.333722
	15.040000	0.360032
	15.045000	0.547489
	15.050000	0.514602
	15.055000	0.333722
	15.060000	0.356743
	15.065000	0.540912
	15.070000	0.514602
	15.075000	0.327145
	15.080000	0.360032
	15.085000	0.544200
	15.090000	0.514602
	15.095000	0.323856
	15.100000	0.353454
	15.105000	0.537623
	15.110000	0.504736
	15.115000	0.323856
	15.120000	0.360032
	15.125000	0.537623
	15.130000	0.504736
	15.135000	0.320567
	15.140000	0.353454
	15.145000	0.537623
	15.150000	0.504736
	15.155000	0.323856
	15.160000	0.356743
	15.165000	0.537623
	15.170000	0.501447
	15.175000	0.320567
	15.180000	0.353454
	15.185000	0.537623
	15.190000	0.504736
	15.195000	0.317278
	15.200000	0.356743
	15.205000	0.537623
	15.210000	0.498158
	15.215000	0.320567
	15.220000	0.356743
	15.225000	0.537623
	15.230000	0.501447
	15.235000	0.320567
	15.240000	0.356743
	15.245000	0.540912
	15.250000	0.504736
	15.255000	0.323856
	15.260000	0.353454
	15.265000	0.540912
	15.270000	0.504736
	15.275000	0.320567
	15.280000	0.360032
	15.285000	0.540912
	15.290000	0.504736
	15.295000	0.327145
	15.300000	0.363321
	15.305000	0.540912
	15.310000	0.508024
	15.315000	0.323856
	15.320000	0.360032
	15.325000	0.544200
	15.330000	0.508024
	15.335000	0.327145
	15.340000	0.363321
	15.345000	0.540912
	15.350000	0.504736
	15.355000	0.323856
	15.360000	0.366609
	15.365000	0.547489
	15.370000	0.508024
	15.375000	0.323856
	15.380000	0.369898
	15.385000	0.544200
	15.390000	0.508024
	15.395000	0.327145
	15.400000	0.366609
	15.405000	0.544200
	15.410000	0.508024
	15.415000	0.330433
	15.420000	0.373187
	15.425000	0.550778
	15.430000	0.501447
	15.435000	0.323856
	15.440000	0.373187
	15.445000	0.550778
	15.450000	0.504736
	15.455000	0.327145
	15.460000	0.373187
	15.465000	0.554066
	15.470000	0.511313
	15.475000	0.327145
	15.480000	0.376475
	15.485000	0.554066
	15.490000	0.508024
	15.495000	0.327145
	15.500000	0.373187
	15.505000	0.550778
	15.510000	0.511313
	15.515000	0.327145
	15.520000	0.373187
	15.525000	0.547489
	15.530000	0.508024
	15.535000	0.327145
	15.540000	0.379764
	15.545000	0.557355
	15.550000	0.511313
	15.555000	0.333722
	15.560000	0.373187
	15.565000	0.557355
	15.570000	0.508024
	15.575000	0.333722
	15.580000	0.379764
	15.585000	0.554066
	15.590000	0.511313
	15.595000	0.330433
	15.600000	0.379764
	15.605000	0.554066
	15.610000	0.504736
	15.615000	0.327145
	15.620000	0.379764
	15.625000	0.563933
	15.630000	0.504736
	15.635000	0.330433
	15.640000	0.379764
	15.645000	0.554066
	15.650000	0.508024
	15.655000	0.327145
	15.660000	0.379764
	15.665000	0.557355
	15.670000	0.504736
	15.675000	0.327145
	15.680000	0.379764
	15.685000	0.557355
	15.690000	0.501447
	15.695000	0.327145
	15.700000	0.379764
	15.705000	0.554066
	15.710000	0.501447
	15.715000	0.327145
	15.720000	0.379764
	15.725000	0.554066
	15.730000	0.501447
	15.735000	0.323856
	15.740000	0.379764
	15.745000	0.550778
	15.750000	0.501447
	15.755000	0.320567
	15.760000	0.373187
	15.765000	0.550778
	15.770000	0.498158
	15.775000	0.317278
	15.780000	0.373187
	15.785000	0.547489
	15.790000	0.494869
	15.795000	0.317278
	15.800000	0.369898
	15.805000	0.550778
	15.810000	0.494869
	15.815000	0.310701
	15.820000	0.373187
	15.825000	0.547489
	15.830000	0.494869
	15.835000	0.310701
	15.840000	0.369898
	15.845000	0.544200
	15.850000	0.491581
	15.855000	0.310701
	15.860000	0.366609
	15.865000	0.540912
	15.870000	0.485003
	15.875000	0.310701
	15.880000	0.366609
	15.885000	0.540912
	15.890000	0.488292
	15.895000	0.310701
	15.900000	0.366609
	15.905000	0.540912
	15.910000	0.485003
	15.915000	0.307412
	15.920000	0.366609
	15.925000	0.540912
	15.930000	0.481715
	15.935000	0.307412
	15.940000	0.369898
	15.945000	0.547489
	15.950000	0.481715
	15.955000	0.304124
	15.960000	0.366609
	15.965000	0.544200
	15.970000	0.488292
	15.975000	0.307412
	15.980000	0.366609
	15.985000	0.547489
	15.990000	0.475137
	15.995000	0.307412
	16.000000	0.369898
	16.005000	0.540912
	16.010000	0.478426
	16.015000	0.307412
	16.020000	0.369898
	16.025000	0.544200
	16.030000	0.485003
	16.035000	0.307412
	16.040000	0.366609
	16.045000	0.544200
	16.050000	0.475137
	16.055000	0.304124
	16.060000	0.369898
	16.065000	0.540912
	16.070000	0.478426
	16.075000	0.307412
	16.080000	0.366609
	16.085000	0.540912
	16.090000	0.475137
	16.095000	0.300835
	16.100000	0.369898
	16.105000	0.540912
	16.110000	0.475137
	16.115000	0.304124
	16.120000	0.373187
	16.125000	0.544200
	16.130000	0.468560
	16.135000	0.304124
	16.140000	0.373187
	16.145000	0.540912
	16.150000	0.478426
	16.155000	0.300835
	16.160000	0.369898
	16.165000	0.544200
	16.170000	0.471848
	16.175000	0.297546
	16.180000	0.373187
	16.185000	0.540912
	16.190000	0.475137
	16.195000	0.300835
	16.200000	0.369898
	16.205000	0.544200
	16.210000	0.471848
	16.215000	0.297546
	16.220000	0.373187
	16.225000	0.540912
	16.230000	0.471848
	16.235000	0.297546
	16.240000	0.369898
	16.245000	0.544200
	16.250000	0.471848
	16.255000	0.297546
	16.260000	0.369898
	16.265000	0.540912
	16.270000	0.468560
	16.275000	0.294257
	16.280000	0.369898
	16.285000	0.540912
	16.290000	0.468560
	16.295000	0.294257
	16.300000	0.369898
	16.305000	0.537623
	16.310000	0.465271
	16.315000	0.297546
	16.320000	0.373187
	16.325000	0.544200
	16.330000	0.465271
	16.335000	0.290969
	16.340000	0.366609
	16.345000	0.534334
	16.350000	0.465271
	16.355000	0.294257
	16.360000	0.366609
	16.365000	0.540912
	16.370000	0.465271
	16.375000	0.294257
	16.380000	0.369898
	16.385000	0.537623
	16.390000	0.465271
	16.395000	0.297546
	16.400000	0.369898
	16.405000	0.537623
	16.410000	0.455405
	16.415000	0.290969
	16.420000	0.369898
	16.425000	0.540912
	16.430000	0.458694
	16.435000	0.290969
	16.440000	0.369898
	16.445000	0.540912
	16.450000	0.455405
	16.455000	0.290969
	16.460000	0.369898
	16.465000	0.537623
	16.470000	0.458694
	16.475000	0.287680
	16.480000	0.369898
	16.485000	0.540912
	16.490000	0.461982
	16.495000	0.290969
	16.500000	0.369898
	16.505000	0.534334
	16.510000	0.455405
	16.515000	0.287680
	16.520000	0.373187
	16.525000	0.534334
	16.530000	0.455405
	16.535000	0.287680
	16.540000	0.369898
	16.545000	0.537623
	16.550000	0.452116
	16.555000	0.290969
	16.560000	0.369898
	16.565000	0.534334
	16.570000	0.452116
	16.575000	0.287680
	16.580000	0.369898
	16.585000	0.534334
	16.590000	0.452116
	16.595000	0.290969
	16.600000	0.369898
	16.605000	0.534334
	16.610000	0.452116
	16.615000	0.290969
	16.620000	0.373187
	16.625000	0.531045
	16.630000	0.452116
	16.635000	0.284391
	16.640000	0.373187
	16.645000	0.537623
	16.650000	0.452116
	16.655000	0.290969
	16.660000	0.373187
	16.665000	0.534334
	16.670000	0.452116
	16.675000	0.287680
	16.680000	0.373187
	16.685000	0.537623
	16.690000	0.448827
	16.695000	0.287680
	16.700000	0.373187
	16.705000	0.537623
	16.710000	0.448827
	16.715000	0.287680
	16.720000	0.376475
	16.725000	0.537623
	16.730000	0.448827
	16.735000	0.284391
	16.740000	0.369898
	16.745000	0.537623
	16.750000	0.448827
	16.755000	0.284391
	16.760000	0.376475
	16.765000	0.537623
	16.770000	0.445539
	16.775000	0.287680
	16.780000	0.376475
	16.785000	0.534334
	16.790000	0.448827
	16.795000	0.287680
	16.800000	0.376475
	16.805000	0.540912
	16.810000	0.445539
	16.815000	0.284391
	16.820000	0.379764
	16.825000	0.537623
	16.830000	0.445539
	16.835000	0.290969
	16.840000	0.373187
	16.845000	0.540912
	16.850000	0.445539
	16.855000	0.287680
	16.860000	0.373187
	16.865000	0.531045
	16.870000	0.445539
	16.875000	0.287680
	16.880000	0.383053
	16.885000	0.537623
	16.890000	0.445539
	16.895000	0.284391
	16.900000	0.379764
	16.905000	0.537623
	16.910000	0.442250
	16.915000	0.281102
	16.920000	0.383053
	16.925000	0.540912
	16.930000	0.442250
	16.935000	0.287680
	16.940000	0.383053
	16.945000	0.540912
	16.950000	0.442250
	16.955000	0.284391
	16.960000	0.383053
	16.965000	0.537623
	16.970000	0.442250
	16.975000	0.287680
	16.980000	0.386342
	16.985000	0.537623
	16.990000	0.442250
	16.995000	0.284391
	17.000000	0.379764
	17.005000	0.537623
	17.010000	0.442250
	17.015000	0.284391
	17.020000	0.379764
	17.025000	0.537623
	17.030000	0.438961
	17.035000	0.281102
	17.040000	0.383053
	17.045000	0.540912
	17.050000	0.442250
	17.055000	0.281102
	17.060000	0.379764
	17.065000	0.537623
	17.070000	0.442250
	17.075000	0.281102
	17.080000	0.379764
	17.085000	0.537623
	17.090000	0.435672
	17.095000	0.277814
	17.100000	0.386342
	17.105000	0.540912
	17.110000	0.432384
	17.115000	0.281102
	17.120000	0.383053
	17.125000	0.537623
	17.130000	0.432384
	17.135000	0.284391
	17.140000	0.386342
	17.145000	0.537623
	17.150000	0.435672
	17.155000	0.277814
	17.160000	0.389630
	17.165000	0.534334
	17.170000	0.435672
	17.175000	0.277814
	17.180000	0.386342
	17.185000	0.534334
	17.190000	0.438961
	17.195000	0.281102
	17.200000	0.386342
	17.205000	0.534334
	17.210000	0.435672
	17.215000	0.281102
	17.220000	0.386342
	17.225000	0.540912
	17.230000	0.438961
	17.235000	0.284391
	17.240000	0.392919
	17.245000	0.540912
	17.250000	0.435672
	17.255000	0.287680
	17.260000	0.392919
	17.265000	0.547489
	17.270000	0.435672
	17.275000	0.284391
	17.280000	0.392919
	17.285000	0.540912
	17.290000	0.435672
	17.295000	0.284391
	17.300000	0.392919
	17.305000	0.544200
	17.310000	0.435672
	17.315000	0.287680
	17.320000	0.389630
	17.325000	0.544200
	17.330000	0.432384
	17.335000	0.287680
	17.340000	0.389630
	17.345000	0.537623
	17.350000	0.432384
	17.355000	0.274525
	17.360000	0.389630
	17.365000	0.540912
	17.370000	0.425806
	17.375000	0.277814
	17.380000	0.386342
	17.385000	0.537623
	17.390000	0.422518
	17.395000	0.274525
	17.400000	0.386342
	17.405000	0.537623
	17.410000	0.422518
	17.415000	0.274525
	17.420000	0.389630
	17.425000	0.534334
	17.430000	0.425806
	17.435000	0.277814
	17.440000	0.389630
	17.445000	0.534334
	17.450000	0.415940
	17.455000	0.274525
	17.460000	0.386342
	17.465000	0.531045
	17.470000	0.422518
	17.475000	0.277814
	17.480000	0.379764
	17.485000	0.534334
	17.490000	0.415940
	17.495000	0.271236
	17.500000	0.386342
	17.505000	0.531045
	17.510000	0.415940
	17.515000	0.267948
	17.520000	0.383053
	17.525000	0.527757
	17.530000	0.419229
	17.535000	0.267948
	17.540000	0.386342
	17.545000	0.531045
	17.550000	0.412651
	17.555000	0.271236
	17.560000	0.383053
	17.565000	0.534334
	17.570000	0.419229
	17.575000	0.267948
	17.580000	0.389630
	17.585000	0.537623
	17.590000	0.412651
	17.595000	0.271236
	17.600000	0.389630
	17.605000	0.531045
	17.610000	0.412651
	17.615000	0.274525
	17.620000	0.392919
	17.625000	0.537623
	17.630000	0.415940
	17.635000	0.274525
	17.640000	0.392919
	17.645000	0.531045
	17.650000	0.415940
	17.655000	0.274525
	17.660000	0.389630
	17.665000	0.537623
	17.670000	0.412651
	17.675000	0.267948
	17.680000	0.396208
	17.685000	0.537623
	17.690000	0.412651
	17.695000	0.267948
	17.700000	0.396208
	17.705000	0.534334
	17.710000	0.415940
	17.715000	0.274525
	17.720000	0.392919
	17.725000	0.531045
	17.730000	0.412651
	17.735000	0.274525
	17.740000	0.396208
	17.745000	0.534334
	17.750000	0.412651
	17.755000	0.274525
	17.760000	0.396208
	17.765000	0.537623
	17.770000	0.412651
	17.775000	0.274525
	17.780000	0.399496
	17.785000	0.537623
	17.790000	0.419229
	17.795000	0.274525
	17.800000	0.392919
	17.805000	0.537623
	17.810000	0.409363
	17.815000	0.274525
	17.820000	0.399496
	17.825000	0.534334
	17.830000	0.406074
	17.835000	0.274525
	17.840000	0.399496
	17.845000	0.537623
	17.850000	0.409363
	17.855000	0.274525
	17.860000	0.402785
	17.865000	0.537623
	17.870000	0.409363
	17.875000	0.274525
	17.880000	0.392919
	17.885000	0.534334
	17.890000	0.415940
	17.895000	0.271236
	17.900000	0.399496
	17.905000	0.537623
	17.910000	0.409363
	17.915000	0.277814
	17.920000	0.399496
	17.925000	0.537623
	17.930000	0.402785
	17.935000	0.271236
	17.940000	0.399496
	17.945000	0.537623
	17.950000	0.406074
	17.955000	0.271236
	17.960000	0.402785
	17.965000	0.534334
	17.970000	0.409363
	17.975000	0.274525
	17.980000	0.406074
	17.985000	0.531045
	17.990000	0.399496
	17.995000	0.274525
	18.000000	0.402785
	18.005000	0.540912
	18.010000	0.409363
	18.015000	0.264659
	18.020000	0.399496
	18.025000	0.537623
	18.030000	0.402785
	18.035000	0.277814
	18.040000	0.402785
	18.045000	0.534334
	18.050000	0.406074
	18.055000	0.277814
	18.060000	0.402785
	18.065000	0.531045
	18.070000	0.399496
	18.075000	0.271236
	18.080000	0.406074
	18.085000	0.534334
	18.090000	0.399496
	18.095000	0.267948
	18.100000	0.402785
	18.105000	0.534334
	18.110000	0.396208
	18.115000	0.264659
	18.120000	0.406074
	18.125000	0.531045
	18.130000	0.396208
	18.135000	0.267948
	18.140000	0.402785
	18.145000	0.524468
	18.150000	0.396208
	18.155000	0.271236
	18.160000	0.396208
	18.165000	0.527757
	18.170000	0.392919
	18.175000	0.264659
	18.180000	0.399496
	18.185000	0.527757
	18.190000	0.392919
	18.195000	0.261370
	18.200000	0.406074
	18.205000	0.527757
	18.210000	0.389630
	18.215000	0.261370
	18.220000	0.399496
	18.225000	0.527757
	18.230000	0.392919
	18.235000	0.261370
	18.240000	0.402785
	18.245000	0.527757
	18.250000	0.386342
	18.255000	0.261370
	18.260000	0.399496
	18.265000	0.524468
	18.270000	0.386342
	18.275000	0.258081
	18.280000	0.399496
	18.285000	0.527757
	18.290000	0.383053
	18.295000	0.258081
	18.300000	0.399496
	18.305000	0.527757
	18.310000	0.383053
	18.315000	0.258081
	18.320000	0.399496
	18.325000	0.521179
	18.330000	0.383053
	18.335000	0.258081
	18.340000	0.402785
	18.345000	0.521179
	18.350000	0.379764
	18.355000	0.261370
	18.360000	0.399496
	18.365000	0.524468
	18.370000	0.379764
	18.375000	0.264659
	18.380000	0.402785
	18.385000	0.521179
	18.390000	0.379764
	18.395000	0.258081
	18.400000	0.399496
	18.405000	0.524468
	18.410000	0.376475
	18.415000	0.258081
	18.420000	0.399496
	18.425000	0.521179
	18.430000	0.376475
	18.435000	0.261370
	18.440000	0.402785
	18.445000	0.521179
	18.450000	0.373187
	18.455000	0.258081
	18.460000	0.399496
	18.465000	0.517891
	18.470000	0.376475
	18.475000	0.258081
	18.480000	0.402785
	18.485000	0.521179
	18.490000	0.373187
	18.495000	0.258081
	18.500000	0.402785
	18.505000	0.517891
	18.510000	0.376475
	18.515000	0.261370
	18.520000	0.399496
	18.525000	0.517891
	18.530000	0.373187
	18.535000	0.258081
	18.540000	0.402785
	18.545000	0.521179
	18.550000	0.373187
	18.555000	0.258081
	18.560000	0.402785
	18.565000	0.517891
	18.570000	0.369898
	18.575000	0.258081
	18.580000	0.402785
	18.585000	0.517891
	18.590000	0.369898
	18.595000	0.254793
	18.600000	0.402785
	18.605000	0.517891
	18.610000	0.369898
	18.615000	0.258081
	18.620000	0.406074
	18.625000	0.517891
	18.630000	0.373187
	18.635000	0.258081
	18.640000	0.402785
	18.645000	0.514602
	18.650000	0.366609
	18.655000	0.258081
	18.660000	0.409363
	18.665000	0.514602
	18.670000	0.369898
	18.675000	0.254793
	18.680000	0.406074
	18.685000	0.511313
	18.690000	0.366609
	18.695000	0.258081
	18.700000	0.406074
	18.705000	0.511313
	18.710000	0.363321
	18.715000	0.258081
	18.720000	0.402785
	18.725000	0.511313
	18.730000	0.363321
	18.735000	0.258081
	18.740000	0.406074
	18.745000	0.514602
	18.750000	0.363321
	18.755000	0.254793
	18.760000	0.406074
	18.765000	0.521179
	18.770000	0.363321
	18.775000	0.254793
	18.780000	0.402785
	18.785000	0.511313
	18.790000	0.360032
	18.795000	0.254793
	18.800000	0.406074
	18.805000	0.508024
	18.810000	0.360032
	18.815000	0.254793
	18.820000	0.402785
	18.825000	0.511313
	18.830000	0.363321
	18.835000	0.251504
	18.840000	0.406074
	18.845000	0.511313
	18.850000	0.360032
	18.855000	0.248215
	18.860000	0.406074
	18.865000	0.511313
	18.870000	0.353454
	18.875000	0.251504
	18.880000	0.409363
	18.885000	0.511313
	18.890000	0.356743
	18.895000	0.251504
	18.900000	0.406074
	18.905000	0.511313
	18.910000	0.356743
	18.915000	0.254793
	18.920000	0.406074
	18.925000	0.508024
	18.930000	0.353454
	18.935000	0.251504
	18.940000	0.409363
	18.945000	0.511313
	18.950000	0.353454
	18.955000	0.254793
	18.960000	0.412651
	18.965000	0.511313
	18.970000	0.353454
	18.975000	0.251504
	18.980000	0.409363
	18.985000	0.514602
	18.990000	0.353454
	18.995000	0.258081
	19.000000	0.409363
	19.005000	0.511313
	19.010000	0.353454
	19.015000	0.254793
	19.020000	0.412651
	19.025000	0.511313
	19.030000	0.353454
	19.035000	0.258081
	19.040000	0.412651
	19.045000	0.514602
	19.050000	0.350166
	19.055000	0.254793
	19.060000	0.412651
	19.065000	0.511313
	19.070000	0.353454
	19.075000	0.258081
	19.080000	0.412651
	19.085000	0.511313
	19.090000	0.350166
	19.095000	0.251504
	19.100000	0.415940
	19.105000	0.504736
	19.110000	0.350166
	19.115000	0.254793
	19.120000	0.415940
	19.125000	0.511313
	19.130000	0.350166
	19.135000	0.254793
	19.140000	0.412651
	19.145000	0.504736
	19.150000	0.350166
	19.155000	0.251504
	19.160000	0.415940
	19.165000	0.504736
	19.170000	0.346877
	19.175000	0.254793
	19.180000	0.412651
	19.185000	0.511313
	19.190000	0.343588
	19.195000	0.254793
	19.200000	0.412651
	19.205000	0.508024
	19.210000	0.343588
	19.215000	0.258081
	19.220000	0.415940
	19.225000	0.508024
	19.230000	0.346877
	19.235000	0.251504
	19.240000	0.415940
	19.245000	0.504736
	19.250000	0.343588
	19.255000	0.248215
	19.260000	0.412651
	19.265000	0.504736
	19.270000	0.343588
	19.275000	0.254793
	19.280000	0.415940
	19.285000	0.504736
	19.290000	0.343588
	19.295000	0.251504
	19.300000	0.415940
	19.305000	0.504736
	19.310000	0.343588
	19.315000	0.254793
	19.320000	0.415940
	19.325000	0.504736
	19.330000	0.340299
	19.335000	0.254793
	19.340000	0.419229
	19.345000	0.504736
	19.350000	0.340299
	19.355000	0.254793
	19.360000	0.415940
	19.365000	0.501447
	19.370000	0.337011
	19.375000	0.254793
	19.380000	0.419229
	19.385000	0.504736
	19.390000	0.333722
	19.395000	0.254793
	19.400000	0.419229
	19.405000	0.501447
	19.410000	0.337011
	19.415000	0.251504
	19.420000	0.422518
	19.425000	0.504736
	19.430000	0.340299
	19.435000	0.258081
	19.440000	0.422518
	19.445000	0.501447
	19.450000	0.333722
	19.455000	0.258081
	19.460000	0.419229
	19.465000	0.501447
	19.470000	0.337011
	19.475000	0.251504
	19.480000	0.419229
	19.485000	0.498158
	19.490000	0.333722
	19.495000	0.254793
	19.500000	0.419229
	19.505000	0.501447
	19.510000	0.330433
	19.515000	0.251504
	19.520000	0.422518
	19.525000	0.498158
	19.530000	0.333722
	19.535000	0.251504
	19.540000	0.422518
	19.545000	0.501447
	19.550000	0.330433
	19.555000	0.251504
	19.560000	0.422518
	19.565000	0.494869
	19.570000	0.330433
	19.575000	0.251504
	19.580000	0.422518
	19.585000	0.494869
	19.590000	0.333722
	19.595000	0.251504
	19.600000	0.422518
	19.605000	0.498158
	19.610000	0.327145
	19.615000	0.254793
	19.620000	0.419229
	19.625000	0.498158
	19.630000	0.330433
	19.635000	0.254793
	19.640000	0.422518
	19.645000	0.498158
	19.650000	0.327145
	19.655000	0.254793
	19.660000	0.422518
	19.665000	0.498158
	19.670000	0.333722
	19.675000	0.251504
	19.680000	0.425806
	19.685000	0.501447
	19.690000	0.330433
	19.695000	0.251504
	19.700000	0.429095
	19.705000	0.498158
	19.710000	0.327145
	19.715000	0.254793
	19.720000	0.425806
	19.725000	0.498158
	19.730000	0.327145
	19.735000	0.251504
	19.740000	0.422518
	19.745000	0.501447
	19.750000	0.330433
	19.755000	0.254793
	19.760000	0.425806
	19.765000	0.498158
	19.770000	0.327145
	19.775000	0.254793
	19.780000	0.425806
	19.785000	0.491581
	19.790000	0.327145
	19.795000	0.254793
	19.800000	0.425806
	19.805000	0.498158
	19.810000	0.327145
	19.815000	0.258081
	19.820000	0.429095
	19.825000	0.494869
	19.830000	0.330433
	19.835000	0.254793
	19.840000	0.432384
	19.845000	0.498158
	19.850000	0.330433
	19.855000	0.254793
	19.860000	0.432384
	19.865000	0.501447
	19.870000	0.330433
	19.875000	0.258081
	19.880000	0.438961
	19.885000	0.498158
	19.890000	0.327145
	19.895000	0.261370
	19.900000	0.442250
	19.905000	0.508024
	19.910000	0.340299
	19.915000	0.274525
	19.920000	0.452116
	19.925000	0.517891
	19.930000	0.346877
	19.935000	0.287680
	19.940000	0.465271
	19.945000	0.537623
	19.950000	0.373187
	19.955000	0.313990
	19.960000	0.491581
	19.965000	0.560644
	19.970000	0.389630
	19.975000	0.320567
	19.980000	0.498158
	19.985000	0.563933
	19.990000	0.379764
	19.995000	0.320567
	20.000000	0.491581
	20.005000	0.554066
	20.010000	0.376475
	20.015000	0.307412
	20.020000	0.485003
	20.025000	0.540912
	20.030000	0.369898
	20.035000	0.300835
	20.040000	0.478426
	20.045000	0.537623
	20.050000	0.360032
	20.055000	0.297546
	20.060000	0.471848
	20.065000	0.527757
	20.070000	0.356743
	20.075000	0.294257
	20.080000	0.468560
	20.085000	0.517891
	20.090000	0.343588
	20.095000	0.274525
	20.100000	0.455405
	20.105000	0.508024
	20.110000	0.333722
	20.115000	0.271236
	20.120000	0.445539
	20.125000	0.504736
	20.130000	0.327145
	20.135000	0.261370
	20.140000	0.438961
	20.145000	0.494869
	20.150000	0.323856
	20.155000	0.261370
	20.160000	0.438961
	20.165000	0.498158
	20.170000	0.317278
	20.175000	0.254793
	20.180000	0.429095
	20.185000	0.488292
	20.190000	0.310701
	20.195000	0.251504
	20.200000	0.425806
	20.205000	0.485003
	20.210000	0.307412
	20.215000	0.248215
	20.220000	0.425806
	20.225000	0.481715
	20.230000	0.300835
	20.235000	0.248215
	20.240000	0.425806
	20.245000	0.478426
	20.250000	0.300835
	20.255000	0.248215
	20.260000	0.425806
	20.265000	0.485003
	20.270000	0.304124
	20.275000	0.248215
	20.280000	0.429095
	20.285000	0.481715
	20.290000	0.304124
	20.295000	0.241638
	20.300000	0.425806
	20.305000	0.481715
	20.310000	0.304124
	20.315000	0.254793
	20.320000	0.429095
	20.325000	0.488292
	20.330000	0.304124
	20.335000	0.258081
	20.340000	0.435672
	20.345000	0.485003
	20.350000	0.304124
	20.355000	0.254793
	20.360000	0.435672
	20.365000	0.485003
	20.370000	0.300835
	20.375000	0.254793
	20.380000	0.435672
	20.385000	0.485003
	20.390000	0.307412
	20.395000	0.258081
	20.400000	0.438961
	20.405000	0.488292
	20.410000	0.307412
	20.415000	0.254793
	20.420000	0.435672
	20.425000	0.488292
	20.430000	0.304124
	20.435000	0.261370
	20.440000	0.438961
	20.445000	0.488292
	20.450000	0.300835
	20.455000	0.261370
	20.460000	0.442250
	20.465000	0.488292
	20.470000	0.307412
	20.475000	0.258081
	20.480000	0.438961
	20.485000	0.488292
	20.490000	0.300835
	20.495000	0.254793
	20.500000	0.442250
	20.505000	0.485003
	20.510000	0.307412
	20.515000	0.261370
	20.520000	0.442250
	20.525000	0.485003
	20.530000	0.304124
	20.535000	0.264659
	20.540000	0.445539
	20.545000	0.488292
	20.550000	0.307412
	20.555000	0.267948
	20.560000	0.442250
	20.565000	0.488292
	20.570000	0.307412
	20.575000	0.264659
	20.580000	0.448827
	20.585000	0.488292
	20.590000	0.304124
	20.595000	0.261370
	20.600000	0.448827
	20.605000	0.488292
	20.610000	0.307412
	20.615000	0.264659
	20.620000	0.445539
	20.625000	0.485003
	20.630000	0.304124
	20.635000	0.267948
	20.640000	0.445539
	20.645000	0.488292
	20.650000	0.304124
	20.655000	0.267948
	20.660000	0.442250
	20.665000	0.491581
	20.670000	0.300835
	20.675000	0.267948
	20.680000	0.452116
	20.685000	0.485003
	20.690000	0.304124
	20.695000	0.267948
	20.700000	0.455405
	20.705000	0.481715
	20.710000	0.304124
	20.715000	0.274525
	20.720000	0.452116
	20.725000	0.491581
	20.730000	0.307412
	20.735000	0.271236
	20.740000	0.455405
	20.745000	0.485003
	20.750000	0.307412
	20.755000	0.267948
	20.760000	0.452116
	20.765000	0.491581
	20.770000	0.310701
	20.775000	0.274525
	20.780000	0.455405
	20.785000	0.488292
	20.790000	0.307412
	20.795000	0.271236
	20.800000	0.452116
	20.805000	0.494869
	20.810000	0.304124
	20.815000	0.271236
	20.820000	0.452116
	20.825000	0.488292
	20.830000	0.304124
	20.835000	0.274525
	20.840000	0.452116
	20.845000	0.485003
	20.850000	0.304124
	20.855000	0.274525
	20.860000	0.452116
	20.865000	0.481715
	20.870000	0.300835
	20.875000	0.267948
	20.880000	0.455405
	20.885000	0.485003
	20.890000	0.297546
	20.895000	0.267948
	20.900000	0.452116
	20.905000	0.478426
	20.910000	0.297546
	20.915000	0.267948
	20.920000	0.452116
	20.925000	0.475137
	20.930000	0.297546
	20.935000	0.267948
	20.940000	0.445539
	20.945000	0.475137
	20.950000	0.294257
	20.955000	0.261370
	20.960000	0.448827
	20.965000	0.475137
	20.970000	0.290969
	20.975000	0.264659
	20.980000	0.442250
	20.985000	0.471848
	20.990000	0.284391
	20.995000	0.261370
	21.000000	0.448827
	21.005000	0.471848
	21.010000	0.284391
	21.015000	0.261370
	21.020000	0.438961
	21.025000	0.471848
	21.030000	0.281102
	21.035000	0.258081
	21.040000	0.442250
	21.045000	0.465271
	21.050000	0.277814
	21.055000	0.258081
	21.060000	0.442250
	21.065000	0.465271
	21.070000	0.277814
	21.075000	0.254793
	21.080000	0.448827
	21.085000	0.461982
	21.090000	0.277814
	21.095000	0.258081
	21.100000	0.445539
	21.105000	0.468560
	21.110000	0.281102
	21.115000	0.258081
	21.120000	0.445539
	21.125000	0.465271
	21.130000	0.284391
	21.135000	0.258081
	21.140000	0.442250
	21.145000	0.465271
	21.150000	0.277814
	21.155000	0.261370
	21.160000	0.442250
	21.165000	0.465271
	21.170000	0.281102
	21.175000	0.264659
	21.180000	0.452116
	21.185000	0.468560
	21.190000	0.281102
	21.195000	0.264659
	21.200000	0.445539
	21.205000	0.468560
	21.210000	0.281102
	21.215000	0.264659
	21.220000	0.448827
	21.225000	0.468560
	21.230000	0.281102
	21.235000	0.264659
	21.240000	0.452116
	21.245000	0.461982
	21.250000	0.277814
	21.255000	0.261370
	21.260000	0.448827
	21.265000	0.465271
	21.270000	0.281102
	21.275000	0.264659
	21.280000	0.452116
	21.285000	0.468560
	21.290000	0.277814
	21.295000	0.267948
	21.300000	0.452116
	21.305000	0.465271
	21.310000	0.277814
	21.315000	0.264659
	21.320000	0.452116
	21.325000	0.465271
	21.330000	0.274525
	21.335000	0.267948
	21.340000	0.452116
	21.345000	0.461982
	21.350000	0.281102
	21.355000	0.267948
	21.360000	0.452116
	21.365000	0.465271
	21.370000	0.274525
	21.375000	0.267948
	21.380000	0.452116
	21.385000	0.465271
	21.390000	0.281102
	21.395000	0.267948
	21.400000	0.458694
	21.405000	0.465271
	21.410000	0.281102
	21.415000	0.271236
	21.420000	0.458694
	21.425000	0.465271
	21.430000	0.284391
	21.435000	0.274525
	21.440000	0.458694
	21.445000	0.461982
	21.450000	0.277814
	21.455000	0.274525
	21.460000	0.461982
	21.465000	0.471848
	21.470000	0.284391
	21.475000	0.271236
	21.480000	0.461982
	21.485000	0.465271
	21.490000	0.277814
	21.495000	0.271236
	21.500000	0.458694
	21.505000	0.465271
	21.510000	0.277814
	21.515000	0.271236
	21.520000	0.455405
	21.525000	0.468560
	21.530000	0.274525
	21.535000	0.271236
	21.540000	0.455405
	21.545000	0.465271
	21.550000	0.274525
	21.555000	0.274525
	21.560000	0.455405
	21.565000	0.458694
	21.570000	0.274525
	21.575000	0.274525
	21.580000	0.461982
	21.585000	0.461982
	21.590000	0.274525
	21.595000	0.274525
	21.600000	0.461982
	21.605000	0.458694
	21.610000	0.274525
	21.615000	0.274525
	21.620000	0.461982
	21.625000	0.461982
	21.630000	0.271236
	21.635000	0.277814
	21.640000	0.458694
	21.645000	0.458694
	21.650000	0.277814
	21.655000	0.274525
	21.660000	0.458694
	21.665000	0.458694
	21.670000	0.274525
	21.675000	0.274525
	21.680000	0.458694
	21.685000	0.458694
	21.690000	0.274525
	21.695000	0.274525
	21.700000	0.458694
	21.705000	0.455405
	21.710000	0.274525
	21.715000	0.271236
	21.720000	0.458694
	21.725000	0.455405
	21.730000	0.271236
	21.735000	0.274525
	21.740000	0.458694
	21.745000	0.458694
	21.750000	0.264659
	21.755000	0.274525
	21.760000	0.458694
	21.765000	0.458694
	21.770000	0.271236
	21.775000	0.267948
	21.780000	0.461982
	21.785000	0.455405
	21.790000	0.267948
	21.795000	0.271236
	21.800000	0.458694
	21.805000	0.455405
	21.810000	0.267948
	21.815000	0.274525
	21.820000	0.458694
	21.825000	0.452116
	21.830000	0.261370
	21.835000	0.274525
	21.840000	0.455405
	21.845000	0.452116
	21.850000	0.264659
	21.855000	0.274525
	21.860000	0.461982
	21.865000	0.452116
	21.870000	0.264659
	21.875000	0.274525
	21.880000	0.458694
	21.885000	0.448827
	21.890000	0.264659
	21.895000	0.274525
	21.900000	0.465271
	21.905000	0.448827
	21.910000	0.267948
	21.915000	0.277814
	21.920000	0.458694
	21.925000	0.448827
	21.930000	0.264659
	21.935000	0.274525
	21.940000	0.458694
	21.945000	0.452116
	21.950000	0.258081
	21.955000	0.274525
	21.960000	0.458694
	21.965000	0.445539
	21.970000	0.261370
	21.975000	0.271236
	21.980000	0.458694
	21.985000	0.448827
	21.990000	0.261370
	21.995000	0.271236
	22.000000	0.458694
	22.005000	0.442250
	22.010000	0.261370
	22.015000	0.271236
	22.020000	0.461982
	22.025000	0.445539
	22.030000	0.254793
	22.035000	0.277814
	22.040000	0.465271
	22.045000	0.448827
	22.050000	0.258081
	22.055000	0.277814
	22.060000	0.458694
	22.065000	0.445539
	22.070000	0.258081
	22.075000	0.277814
	22.080000	0.461982
	22.085000	0.448827
	22.090000	0.258081
	22.095000	0.277814
	22.100000	0.465271
	22.105000	0.445539
	22.110000	0.258081
	22.115000	0.277814
	22.120000	0.458694
	22.125000	0.445539
	22.130000	0.254793
	22.135000	0.281102
	22.140000	0.465271
	22.145000	0.442250
	22.150000	0.258081
	22.155000	0.281102
	22.160000	0.461982
	22.165000	0.442250
	22.170000	0.258081
	22.175000	0.281102
	22.180000	0.461982
	22.185000	0.445539
	22.190000	0.258081
	22.195000	0.274525
	22.200000	0.465271
	22.205000	0.445539
	22.210000	0.261370
	22.215000	0.281102
	22.220000	0.465271
	22.225000	0.442250
	22.230000	0.261370
	22.235000	0.284391
	22.240000	0.465271
	22.245000	0.445539
	22.250000	0.261370
	22.255000	0.284391
	22.260000	0.468560
	22.265000	0.445539
	22.270000	0.261370
	22.275000	0.281102
	22.280000	0.468560
	22.285000	0.445539
	22.290000	0.261370
	22.295000	0.284391
	22.300000	0.468560
	22.305000	0.445539
	22.310000	0.254793
	22.315000	0.284391
	22.320000	0.468560
	22.325000	0.438961
	22.330000	0.258081
	22.335000	0.287680
	22.340000	0.468560
	22.345000	0.445539
	22.350000	0.258081
	22.355000	0.290969
	22.360000	0.475137
	22.365000	0.445539
	22.370000	0.258081
	22.375000	0.284391
	22.380000	0.471848
	22.385000	0.445539
	22.390000	0.261370
	22.395000	0.287680
	22.400000	0.475137
	22.405000	0.448827
	22.410000	0.267948
	22.415000	0.290969
	22.420000	0.481715
	22.425000	0.448827
	22.430000	0.267948
	22.435000	0.297546
	22.440000	0.485003
	22.445000	0.455405
	22.450000	0.274525
	22.455000	0.310701
	22.460000	0.491581
	22.465000	0.458694
	22.470000	0.281102
	22.475000	0.317278
	22.480000	0.501447
	22.485000	0.471848
	22.490000	0.290969
	22.495000	0.327145
	22.500000	0.511313
	22.505000	0.478426
	22.510000	0.297546
	22.515000	0.333722
	22.520000	0.511313
	22.525000	0.488292
	22.530000	0.294257
	22.535000	0.327145
	22.540000	0.508024
	22.545000	0.475137
	22.550000	0.287680
	22.555000	0.330433
	22.560000	0.504736
	22.565000	0.468560
	22.570000	0.287680
	22.575000	0.320567
	22.580000	0.498158
	22.585000	0.461982
	22.590000	0.281102
	22.595000	0.310701
	22.600000	0.491581
	22.605000	0.452116
	22.610000	0.267948
	22.615000	0.304124
	22.620000	0.485003
	22.625000	0.445539
	22.630000	0.261370
	22.635000	0.297546
	22.640000	0.478426
	22.645000	0.432384
	22.650000	0.254793
	22.655000	0.290969
	22.660000	0.468560
	22.665000	0.432384
	22.670000	0.248215
	22.675000	0.284391
	22.680000	0.468560
	22.685000	0.422518
	22.690000	0.241638
	22.695000	0.284391
	22.700000	0.461982
	22.705000	0.419229
	22.710000	0.241638
	22.715000	0.281102
	22.720000	0.465271
	22.725000	0.419229
	22.730000	0.238349
	22.735000	0.281102
	22.740000	0.465271
	22.745000	0.419229
	22.750000	0.241638
	22.755000	0.281102
	22.760000	0.465271
	22.765000	0.419229
	22.770000	0.238349
	22.775000	0.284391
	22.780000	0.465271
	22.785000	0.419229
	22.790000	0.241638
	22.795000	0.281102
	22.800000	0.461982
	22.805000	0.419229
	22.810000	0.238349
	22.815000	0.284391
	22.820000	0.465271
	22.825000	0.415940
	22.830000	0.235060
	22.835000	0.284391
	22.840000	0.468560
	22.845000	0.422518
	22.850000	0.241638
	22.855000	0.287680
	22.860000	0.465271
	22.865000	0.419229
	22.870000	0.241638
	22.875000	0.290969
	22.880000	0.471848
	22.885000	0.419229
	22.890000	0.248215
	22.895000	0.290969
	22.900000	0.468560
	22.905000	0.422518
	22.910000	0.244927
	22.915000	0.287680
	22.920000	0.471848
	22.925000	0.422518
	22.930000	0.244927
	22.935000	0.294257
	22.940000	0.471848
	22.945000	0.419229
	22.950000	0.244927
	22.955000	0.297546
	22.960000	0.475137
	22.965000	0.422518
	22.970000	0.244927
	22.975000	0.294257
	22.980000	0.475137
	22.985000	0.419229
	22.990000	0.244927
	22.995000	0.294257
	23.000000	0.475137
	23.005000	0.422518
	23.010000	0.241638
	23.015000	0.294257
	23.020000	0.478426
	23.025000	0.422518
	23.030000	0.244927
	23.035000	0.300835
	23.040000	0.475137
	23.045000	0.425806
	23.050000	0.241638
	23.055000	0.297546
	23.060000	0.471848
	23.065000	0.415940
	23.070000	0.241638
	23.075000	0.304124
	23.080000	0.475137
	23.085000	0.419229
	23.090000	0.241638
	23.095000	0.297546
	23.100000	0.478426
	23.105000	0.419229
	23.110000	0.241638
	23.115000	0.304124
	23.120000	0.475137
	23.125000	0.419229
	23.130000	0.241638
	23.135000	0.300835
	23.140000	0.478426
	23.145000	0.415940
	23.150000	0.241638
	23.155000	0.304124
	23.160000	0.475137
	23.165000	0.415940
	23.170000	0.238349
	23.175000	0.300835
	23.180000	0.475137
	23.185000	0.415940
	23.190000	0.238349
	23.195000	0.304124
	23.200000	0.478426
	23.205000	0.412651
	23.210000	0.241638
	23.215000	0.304124
	23.220000	0.481715
	23.225000	0.419229
	23.230000	0.238349
	23.235000	0.304124
	23.240000	0.478426
	23.245000	0.412651
	23.250000	0.241638
	23.255000	0.307412
	23.260000	0.481715
	23.265000	0.412651
	23.270000	0.238349
	23.275000	0.304124
	23.280000	0.478426
	23.285000	0.412651
	23.290000	0.238349
	23.295000	0.304124
	23.300000	0.478426
	23.305000	0.415940
	23.310000	0.241638
	23.315000	0.307412
	23.320000	0.485003
	23.325000	0.415940
	23.330000	0.241638
	23.335000	0.310701
	23.340000	0.485003
	23.345000	0.412651
	23.350000	0.241638
	23.355000	0.304124
	23.360000	0.478426
	23.365000	0.412651
	23.370000	0.241638
	23.375000	0.313990
	23.380000	0.485003
	23.385000	0.415940
	23.390000	0.244927
	23.395000	0.310701
	23.400000	0.485003
	23.405000	0.415940
	23.410000	0.241638
	23.415000	0.313990
	23.420000	0.485003
	23.425000	0.415940
	23.430000	0.241638
	23.435000	0.310701
	23.440000	0.481715
	23.445000	0.406074
	23.450000	0.238349
	23.455000	0.307412
	23.460000	0.481715
	23.465000	0.406074
	23.470000	0.238349
	23.475000	0.304124
	23.480000	0.475137
	23.485000	0.402785
	23.490000	0.228483
	23.495000	0.304124
	23.500000	0.471848
	23.505000	0.399496
	23.510000	0.228483
	23.515000	0.304124
	23.520000	0.471848
	23.525000	0.396208
	23.530000	0.225194
	23.535000	0.300835
	23.540000	0.471848
	23.545000	0.396208
	23.550000	0.221905
	23.555000	0.297546
	23.560000	0.471848
	23.565000	0.396208
	23.570000	0.225194
	23.575000	0.300835
	23.580000	0.471848
	23.585000	0.396208
	23.590000	0.225194
	23.595000	0.304124
	23.600000	0.468560
	23.605000	0.389630
	23.610000	0.218617
	23.615000	0.304124
	23.620000	0.468560
	23.625000	0.392919
	23.630000	0.221905
	23.635000	0.304124
	23.640000	0.475137
	23.645000	0.396208
	23.650000	0.225194
	23.655000	0.300835
	23.660000	0.475137
	23.665000	0.396208
	23.670000	0.225194
	23.675000	0.304124
	23.680000	0.475137
	23.685000	0.392919
	23.690000	0.228483
	23.695000	0.300835
	23.700000	0.475137
	23.705000	0.392919
	23.710000	0.221905
	23.715000	0.300835
	23.720000	0.471848
	23.725000	0.389630
	23.730000	0.221905
	23.735000	0.307412
	23.740000	0.471848
	23.745000	0.389630
	23.750000	0.221905
	23.755000	0.307412
	23.760000	0.468560
	23.765000	0.386342
	23.770000	0.228483
	23.775000	0.307412
	23.780000	0.471848
	23.785000	0.389630
	23.790000	0.225194
	23.795000	0.307412
	23.800000	0.471848
	23.805000	0.386342
	23.810000	0.225194
	23.815000	0.307412
	23.820000	0.471848
	23.825000	0.386342
	23.830000	0.221905
	23.835000	0.307412
	23.840000	0.471848
	23.845000	0.383053
	23.850000	0.221905
	23.855000	0.307412
	23.860000	0.471848
	23.865000	0.386342
	23.870000	0.218617
	23.875000	0.304124
	23.880000	0.471848
	23.885000	0.383053
	23.890000	0.218617
	23.895000	0.307412
	23.900000	0.471848
	23.905000	0.386342
	23.910000	0.221905
	23.915000	0.310701
	23.920000	0.471848
	23.925000	0.379764
	23.930000	0.218617
	23.935000	0.307412
	23.940000	0.475137
	23.945000	0.379764
	23.950000	0.215328
	23.955000	0.313990
	23.960000	0.475137
	23.965000	0.376475
	23.970000	0.221905
	23.975000	0.313990
	23.980000	0.475137
	23.985000	0.379764
	23.990000	0.221905
	23.995000	0.307412
	24.000000	0.471848
	24.005000	0.379764
	24.010000	0.218617
	24.015000	0.310701
	24.020000	0.475137
	24.025000	0.379764
	24.030000	0.218617
	24.035000	0.313990
	24.040000	0.475137
	24.045000	0.379764
	24.050000	0.212039
	24.055000	0.310701
	24.060000	0.471848
	24.065000	0.379764
	24.070000	0.215328
	24.075000	0.313990
	24.080000	0.475137
	24.085000	0.376475
	24.090000	0.218617
	24.095000	0.310701
	24.100000	0.471848
	24.105000	0.376475
	24.110000	0.215328
	24.115000	0.317278
	24.120000	0.471848
	24.125000	0.379764
	24.130000	0.215328
	24.135000	0.313990
	24.140000	0.471848
	24.145000	0.376475
	24.150000	0.218617
	24.155000	0.317278
	24.160000	0.471848
	24.165000	0.376475
	24.170000	0.218617
	24.175000	0.320567
	24.180000	0.471848
	24.185000	0.373187
	24.190000	0.215328
	24.195000	0.317278
	24.200000	0.475137
	24.205000	0.376475
	24.210000	0.212039
	24.215000	0.320567
	24.220000	0.471848
	24.225000	0.379764
	24.230000	0.215328
	24.235000	0.317278
	24.240000	0.475137
	24.245000	0.369898
	24.250000	0.218617
	24.255000	0.317278
	24.260000	0.475137
	24.265000	0.369898
	24.270000	0.212039
	24.275000	0.317278
	24.280000	0.471848
	24.285000	0.369898
	24.290000	0.215328
	24.295000	0.313990
	24.300000	0.471848
	24.305000	0.369898
	24.310000	0.215328
	24.315000	0.320567
	24.320000	0.471848
	24.325000	0.369898
	24.330000	0.215328
	24.335000	0.320567
	24.340000	0.468560
	24.345000	0.369898
	24.350000	0.212039
	24.355000	0.317278
	24.360000	0.475137
	24.365000	0.366609
	24.370000	0.215328
	24.375000	0.323856
	24.380000	0.475137
	24.385000	0.366609
	24.390000	0.212039
	24.395000	0.323856
	24.400000	0.471848
	24.405000	0.363321
	24.410000	0.215328
	24.415000	0.320567
	24.420000	0.471848
	24.425000	0.363321
	24.430000	0.212039
	24.435000	0.320567
	24.440000	0.471848
	24.445000	0.366609
	24.450000	0.212039
	24.455000	0.323856
	24.460000	0.471848
	24.465000	0.363321
	24.470000	0.208751
	24.475000	0.323856
	24.480000	0.475137
	24.485000	0.366609
	24.490000	0.215328
	24.495000	0.327145
	24.500000	0.471848
	24.505000	0.369898
	24.510000	0.215328
	24.515000	0.323856
	24.520000	0.478426
	24.525000	0.363321
	24.530000	0.215328
	24.535000	0.330433
	24.540000	0.478426
	24.545000	0.366609
	24.550000	0.212039
	24.555000	0.330433
	24.560000	0.478426
	24.565000	0.366609
	24.570000	0.212039
	24.575000	0.330433
	24.580000	0.478426
	24.585000	0.363321
	24.590000	0.218617
	24.595000	0.330433
	24.600000	0.478426
	24.605000	0.360032
	24.610000	0.215328
	24.615000	0.327145
	24.620000	0.471848
	24.625000	0.363321
	24.630000	0.215328
	24.635000	0.327145
	24.640000	0.475137
	24.645000	0.363321
	24.650000	0.215328
	24.655000	0.327145
	24.660000	0.475137
	24.665000	0.356743
	24.670000	0.215328
	24.675000	0.330433
	24.680000	0.471848
	24.685000	0.360032
	24.690000	0.218617
	24.695000	0.327145
	24.700000	0.478426
	24.705000	0.360032
	24.710000	0.215328
	24.715000	0.330433
	24.720000	0.475137
	24.725000	0.360032
	24.730000	0.212039
	24.735000	0.333722
	24.740000	0.481715
	24.745000	0.356743
	24.750000	0.218617
	24.755000	0.333722
	24.760000	0.478426
	24.765000	0.356743
	24.770000	0.215328
	24.775000	0.330433
	24.780000	0.475137
	24.785000	0.356743
	24.790000	0.215328
	24.795000	0.330433
	24.800000	0.475137
	24.805000	0.353454
	24.810000	0.212039
	24.815000	0.337011
	24.820000	0.478426
	24.825000	0.350166
	24.830000	0.215328
	24.835000	0.337011
	24.840000	0.475137
	24.845000	0.356743
	24.850000	0.208751
	24.855000	0.327145
	24.860000	0.471848
	24.865000	0.356743
	24.870000	0.215328
	24.875000	0.337011
	24.880000	0.471848
	24.885000	0.353454
	24.890000	0.212039
	24.895000	0.330433
	24.900000	0.471848
	24.905000	0.353454
	24.910000	0.212039
	24.915000	0.330433
	24.920000	0.471848
	24.925000	0.346877
	24.930000	0.208751
	24.935000	0.330433
	24.940000	0.471848
	24.945000	0.350166
	24.950000	0.208751
	24.955000	0.330433
	24.960000	0.468560
	24.965000	0.346877
	24.970000	0.208751
	24.975000	0.333722
	24.980000	0.468560
	24.985000	0.346877
	24.990000	0.208751
	24.995000	0.330433
	25.000000	0.471848
	25.005000	0.343588
	25.010000	0.208751
	25.015000	0.333722
	25.020000	0.471848
	25.025000	0.343588
	25.030000	0.205462
	25.035000	0.333722
	25.040000	0.465271
	25.045000	0.343588
	25.050000	0.202173
	25.055000	0.333722
	25.060000	0.465271
	25.065000	0.340299
	25.070000	0.208751
	25.075000	0.330433
	25.080000	0.468560
	25.085000	0.337011
	25.090000	0.195596
	25.095000	0.333722
	25.100000	0.468560
	25.105000	0.340299
	25.110000	0.202173
	25.115000	0.333722
	25.120000	0.465271
	25.125000	0.337011
	25.130000	0.202173
	25.135000	0.337011
	25.140000	0.461982
	25.145000	0.333722
	25.150000	0.202173
	25.155000	0.333722
	25.160000	0.468560
	25.165000	0.333722
	25.170000	0.202173
	25.175000	0.330433
	25.180000	0.471848
	25.185000	0.340299
	25.190000	0.202173
	25.195000	0.337011
	25.200000	0.468560
	25.205000	0.340299
	25.210000	0.208751
	25.215000	0.337011
	25.220000	0.475137
	25.225000	0.337011
	25.230000	0.208751
	25.235000	0.343588
	25.240000	0.475137
	25.245000	0.340299
	25.250000	0.212039
	25.255000	0.343588
	25.260000	0.471848
	25.265000	0.340299
	25.270000	0.212039
	25.275000	0.346877
	25.280000	0.478426
	25.285000	0.343588
	25.290000	0.215328
	25.295000	0.350166
	25.300000	0.475137
	25.305000	0.337011
	25.310000	0.212039
	25.315000	0.346877
	25.320000	0.475137
	25.325000	0.340299
	25.330000	0.215328
	25.335000	0.353454
	25.340000	0.471848
	25.345000	0.340299
	25.350000	0.212039
	25.355000	0.350166
	25.360000	0.475137
	25.365000	0.337011
	25.370000	0.212039
	25.375000	0.350166
	25.380000	0.475137
	25.385000	0.333722
	25.390000	0.212039
	25.395000	0.346877
	25.400000	0.471848
	25.405000	0.333722
	25.410000	0.208751
	25.415000	0.346877
	25.420000	0.471848
	25.425000	0.337011
	25.430000	0.208751
	25.435000	0.346877
	25.440000	0.468560
	25.445000	0.330433
	25.450000	0.208751
	25.455000	0.346877
	25.460000	0.468560
	25.465000	0.333722
	25.470000	0.208751
	25.475000	0.343588
	25.480000	0.471848
	25.485000	0.333722
	25.490000	0.205462
	25.495000	0.346877
	25.500000	0.471848
	25.505000	0.330433
	25.510000	0.205462
	25.515000	0.346877
	25.520000	0.468560
	25.525000	0.323856
	25.530000	0.205462
	25.535000	0.346877
	25.540000	0.468560
	25.545000	0.323856
	25.550000	0.202173
	25.555000	0.346877
	25.560000	0.465271
	25.565000	0.323856
	25.570000	0.208751
	25.575000	0.346877
	25.580000	0.471848
	25.585000	0.330433
	25.590000	0.205462
	25.595000	0.346877
	25.600000	0.468560
	25.605000	0.323856
	25.610000	0.212039
	25.615000	0.350166
	25.620000	0.468560
	25.625000	0.327145
	25.630000	0.208751
	25.635000	0.350166
	25.640000	0.471848
	25.645000	0.323856
	25.650000	0.212039
	25.655000	0.356743
	25.660000	0.475137
	25.665000	0.327145
	25.670000	0.208751
	25.675000	0.353454
	25.680000	0.471848
	25.685000	0.327145
	25.690000	0.208751
	25.695000	0.356743
	25.700000	0.471848
	25.705000	0.330433
	25.710000	0.212039
	25.715000	0.353454
	25.720000	0.471848
	25.725000	0.327145
	25.730000	0.212039
	25.735000	0.356743
	25.740000	0.475137
	25.745000	0.330433
	25.750000	0.205462
	25.755000	0.360032
	25.760000	0.475137
	25.765000	0.327145
	25.770000	0.215328
	25.775000	0.360032
	25.780000	0.481715
	25.785000	0.330433
	25.790000	0.215328
	25.795000	0.363321
	25.800000	0.481715
	25.805000	0.330433
	25.810000	0.215328
	25.815000	0.363321
	25.820000	0.475137
	25.825000	0.333722
	25.830000	0.215328
	25.835000	0.363321
	25.840000	0.481715
	25.845000	0.330433
	25.850000	0.215328
	25.855000	0.366609
	25.860000	0.478426
	25.865000	0.330433
	25.870000	0.215328
	25.875000	0.363321
	25.880000	0.471848
	25.885000	0.330433
	25.890000	0.218617
	25.895000	0.366609
	25.900000	0.475137
	25.905000	0.323856
	25.910000	0.215328
	25.915000	0.360032
	25.920000	0.475137
	25.925000	0.323856
	25.930000	0.215328
	25.935000	0.366609
	25.940000	0.475137
	25.945000	0.320567
	25.950000	0.215328
	25.955000	0.366609
	25.960000	0.471848
	25.965000	0.317278
	25.970000	0.208751
	25.975000	0.363321
	25.980000	0.475137
	25.985000	0.313990
	25.990000	0.208751
	25.995000	0.360032
	26.000000	0.471848
	26.005000	0.313990
	26.010000	0.208751
	26.015000	0.360032
	26.020000	0.468560
	26.025000	0.310701
	26.030000	0.205462
	26.035000	0.356743
	26.040000	0.461982
	26.045000	0.307412
	26.050000	0.205462
	26.055000	0.360032
	26.060000	0.461982
	26.065000	0.304124
	26.070000	0.198884
	26.075000	0.356743
	26.080000	0.458694
	26.085000	0.307412
	26.090000	0.198884
	26.095000	0.356743
	26.100000	0.461982
	26.105000	0.300835
	26.110000	0.202173
	26.115000	0.356743
	26.120000	0.458694
	26.125000	0.304124
	26.130000	0.198884
	26.135000	0.360032
	26.140000	0.455405
	26.145000	0.300835
	26.150000	0.202173
	26.155000	0.353454
	26.160000	0.461982
	26.165000	0.300835
	26.170000	0.198884
	26.175000	0.356743
	26.180000	0.458694
	26.185000	0.300835
	26.190000	0.198884
	26.195000	0.360032
	26.200000	0.461982
	26.205000	0.304124
	26.210000	0.202173
	26.215000	0.353454
	26.220000	0.455405
	26.225000	0.294257
	26.230000	0.195596
	26.235000	0.356743
	26.240000	0.455405
	26.245000	0.300835
	26.250000	0.198884
	26.255000	0.360032
	26.260000	0.452116
	26.265000	0.297546
	26.270000	0.198884
	26.275000	0.360032
	26.280000	0.455405
	26.285000	0.297546
	26.290000	0.198884
	26.295000	0.356743
	26.300000	0.458694
	26.305000	0.294257
	26.310000	0.198884
	26.315000	0.356743
	26.320000	0.452116
	26.325000	0.290969
	26.330000	0.202173
	26.335000	0.356743
	26.340000	0.455405
	26.345000	0.290969
	26.350000	0.198884
	26.355000	0.360032
	26.360000	0.452116
	26.365000	0.290969
	26.370000	0.202173
	26.375000	0.356743
	26.380000	0.452116
	26.385000	0.290969
	26.390000	0.195596
	26.395000	0.356743
	26.400000	0.452116
	26.405000	0.287680
	26.410000	0.195596
	26.415000	0.360032
	26.420000	0.448827
	26.425000	0.287680
	26.430000	0.195596
	26.435000	0.356743
	26.440000	0.448827
	26.445000	0.284391
	26.450000	0.195596
	26.455000	0.360032
	26.460000	0.452116
	26.465000	0.281102
	26.470000	0.189018
	26.475000	0.360032
	26.480000	0.448827
	26.485000	0.284391
	26.490000	0.195596
	26.495000	0.360032
	26.500000	0.448827
	26.505000	0.281102
	26.510000	0.192307
	26.515000	0.356743
	26.520000	0.448827
	26.525000	0.284391
	26.530000	0.198884
	26.535000	0.363321
	26.540000	0.445539
	26.545000	0.287680
	26.550000	0.195596
	26.555000	0.360032
	26.560000	0.442250
	26.565000	0.284391
	26.570000	0.202173
	26.575000	0.360032
	26.580000	0.448827
	26.585000	0.281102
	26.590000	0.198884
	26.595000	0.363321
	26.600000	0.445539
	26.605000	0.281102
	26.610000	0.195596
	26.615000	0.363321
	26.620000	0.445539
	26.625000	0.281102
	26.630000	0.195596
	26.635000	0.366609
	26.640000	0.448827
	26.645000	0.277814
	26.650000	0.195596
	26.655000	0.363321
	26.660000	0.445539
	26.665000	0.281102
	26.670000	0.195596
	26.675000	0.360032
	26.680000	0.448827
	26.685000	0.274525
	26.690000	0.195596
	26.695000	0.363321
	26.700000	0.445539
	26.705000	0.277814
	26.710000	0.198884
	26.715000	0.363321
	26.720000	0.448827
	26.725000	0.274525
	26.730000	0.195596
	26.735000	0.369898
	26.740000	0.445539
	26.745000	0.277814
	26.750000	0.195596
	26.755000	0.366609
	26.760000	0.452116
	26.765000	0.281102
	26.770000	0.202173
	26.775000	0.376475
	26.780000	0.452116
	26.785000	0.284391
	26.790000	0.208751
	26.795000	0.383053
	26.800000	0.458694
	26.805000	0.290969
	26.810000	0.218617
	26.815000	0.386342
	26.820000	0.465271
	26.825000	0.297546
	26.830000	0.228483
	26.835000	0.396208
	26.840000	0.475137
	26.845000	0.310701
	26.850000	0.235060
	26.855000	0.406074
	26.860000	0.481715
	26.865000	0.310701
	26.870000	0.244927
	26.875000	0.415940
	26.880000	0.491581
	26.885000	0.330433
	26.890000	0.254793
	26.895000	0.419229
	26.900000	0.501447
	26.905000	0.327145
	26.910000	0.254793
	26.915000	0.422518
	26.920000	0.494869
	26.925000	0.330433
	26.930000	0.248215
	26.935000	0.429095
	26.940000	0.494869
	26.945000	0.327145
	26.950000	0.248215
	26.955000	0.422518
	26.960000	0.494869
	26.965000	0.313990
	26.970000	0.248215
	26.975000	0.415940
	26.980000	0.481715
	26.985000	0.310701
	26.990000	0.235060
	26.995000	0.409363
	27.000000	0.478426
	27.005000	0.304124
	27.010000	0.228483
	27.015000	0.406074
	27.020000	0.471848
	27.025000	0.297546
	27.030000	0.225194
	27.035000	0.399496
	27.040000	0.461982
	27.045000	0.287680
	27.050000	0.218617
	27.055000	0.389630
	27.060000	0.461982
	27.065000	0.281102
	27.070000	0.212039
	27.075000	0.383053
	27.080000	0.445539
	27.085000	0.267948
	27.090000	0.205462
	27.095000	0.373187
	27.100000	0.438961
	27.105000	0.264659
	27.110000	0.198884
	27.115000	0.366609
	27.120000	0.429095
	27.125000	0.254793
	27.130000	0.192307
	27.135000	0.369898
	27.140000	0.429095
	27.145000	0.254793
	27.150000	0.189018
	27.155000	0.366609
	27.160000	0.429095
	27.165000	0.254793
	27.170000	0.189018
	27.175000	0.366609
	27.180000	0.432384
	27.185000	0.258081
	27.190000	0.192307
	27.195000	0.363321
	27.200000	0.432384
	27.205000	0.258081
	27.210000	0.195596
	27.215000	0.366609
	27.220000	0.432384
	27.225000	0.254793
	27.230000	0.198884
	27.235000	0.373187
	27.240000	0.438961
	27.245000	0.254793
	27.250000	0.202173
	27.255000	0.379764
	27.260000	0.435672
	27.265000	0.261370
	27.270000	0.198884
	27.275000	0.379764
	27.280000	0.438961
	27.285000	0.254793
	27.290000	0.202173
	27.295000	0.383053
	27.300000	0.438961
	27.305000	0.261370
	27.310000	0.205462
	27.315000	0.383053
	27.320000	0.445539
	27.325000	0.258081
	27.330000	0.205462
	27.335000	0.386342
	27.340000	0.442250
	27.345000	0.264659
	27.350000	0.202173
	27.355000	0.386342
	27.360000	0.438961
	27.365000	0.261370
	27.370000	0.205462
	27.375000	0.383053
	27.380000	0.442250
	27.385000	0.264659
	27.390000	0.208751
	27.395000	0.383053
	27.400000	0.442250
	27.405000	0.261370
	27.410000	0.208751
	27.415000	0.389630
	27.420000	0.445539
	27.425000	0.264659
	27.430000	0.208751
	27.435000	0.389630
	27.440000	0.445539
	27.445000	0.261370
	27.450000	0.208751
	27.455000	0.389630
	27.460000	0.445539
	27.465000	0.261370
	27.470000	0.208751
	27.475000	0.386342
	27.480000	0.442250
	27.485000	0.261370
	27.490000	0.212039
	27.495000	0.392919
	27.500000	0.438961
	27.505000	0.254793
	27.510000	0.212039
	27.515000	0.392919
	27.520000	0.442250
	27.525000	0.258081
	27.530000	0.212039
	27.535000	0.396208
	27.540000	0.445539
	27.545000	0.261370
	27.550000	0.215328
	27.555000	0.396208
	27.560000	0.445539
	27.565000	0.261370
	27.570000	0.212039
	27.575000	0.392919
	27.580000	0.442250
	27.585000	0.261370
	27.590000	0.215328
	27.595000	0.399496
	27.600000	0.438961
	27.605000	0.261370
	27.610000	0.215328
	27.615000	0.392919
	27.620000	0.442250
	27.625000	0.258081
	27.630000	0.215328
	27.635000	0.396208
	27.640000	0.445539
	27.645000	0.258081
	27.650000	0.218617
	27.655000	0.402785
	27.660000	0.442250
	27.665000	0.258081
	27.670000	0.218617
	27.675000	0.396208
	27.680000	0.438961
	27.685000	0.258081
	27.690000	0.215328
	27.695000	0.399496
	27.700000	0.442250
	27.705000	0.258081
	27.710000	0.218617
	27.715000	0.399496
	27.720000	0.442250
	27.725000	0.261370
	27.730000	0.215328
	27.735000	0.399496
	27.740000	0.438961
	27.745000	0.261370
	27.750000	0.215328
	27.755000	0.402785
	27.760000	0.442250
	27.765000	0.258081
	27.770000	0.221905
	27.775000	0.399496
	27.780000	0.438961
	27.785000	0.258081
	27.790000	0.221905
	27.795000	0.402785
	27.800000	0.438961
	27.805000	0.251504
	27.810000	0.218617
	27.815000	0.402785
	27.820000	0.438961
	27.825000	0.254793
	27.830000	0.218617
	27.835000	0.406074
	27.840000	0.438961
	27.845000	0.258081
	27.850000	0.225194
	27.855000	0.406074
	27.860000	0.445539
	27.865000	0.258081
	27.870000	0.225194
	27.875000	0.406074
	27.880000	0.438961
	27.885000	0.261370
	27.890000	0.225194
	27.895000	0.409363
	27.900000	0.438961
	27.905000	0.254793
	27.910000	0.221905
	27.915000	0.409363
	27.920000	0.438961
	27.925000	0.251504
	27.930000	0.221905
	27.935000	0.406074
	27.940000	0.435672
	27.945000	0.254793
	27.950000	0.221905
	27.955000	0.402785
	27.960000	0.435672
	27.965000	0.251504
	27.970000	0.221905
	27.975000	0.402785
	27.980000	0.432384
	27.985000	0.241638
	27.990000	0.215328
	27.995000	0.402785
	28.000000	0.432384
	28.005000	0.241638
	28.010000	0.218617
	28.015000	0.402785
	28.020000	0.425806
	28.025000	0.241638
	28.030000	0.215328
	28.035000	0.399496
	28.040000	0.425806
	28.045000	0.241638
	28.050000	0.212039
	28.055000	0.396208
	28.060000	0.422518
	28.065000	0.238349
	28.070000	0.215328
	28.075000	0.396208
	28.080000	0.422518
	28.085000	0.235060
	28.090000	0.212039
	28.095000	0.396208
	28.100000	0.419229
	28.105000	0.235060
	28.110000	0.208751
	28.115000	0.399496
	28.120000	0.422518
	28.125000	0.235060
	28.130000	0.212039
	28.135000	0.396208
	28.140000	0.422518
	28.145000	0.228483
	28.150000	0.208751
	28.155000	0.399496
	28.160000	0.419229
	28.165000	0.231772
	28.170000	0.212039
	28.175000	0.399496
	28.180000	0.419229
	28.185000	0.231772
	28.190000	0.215328
	28.195000	0.396208
	28.200000	0.422518
	28.205000	0.231772
	28.210000	0.212039
	28.215000	0.399496
	28.220000	0.415940
	28.225000	0.228483
	28.230000	0.212039
	28.235000	0.399496
	28.240000	0.415940
	28.245000	0.231772
	28.250000	0.208751
	28.255000	0.402785
	28.260000	0.412651
	28.265000	0.231772
	28.270000	0.208751
	28.275000	0.399496
	28.280000	0.415940
	28.285000	0.225194
	28.290000	0.215328
	28.295000	0.399496
	28.300000	0.415940
	28.305000	0.225194
	28.310000	0.212039
	28.315000	0.399496
	28.320000	0.412651
	28.325000	0.231772
	28.330000	0.212039
	28.335000	0.399496
	28.340000	0.419229
	28.345000	0.225194
	28.350000	0.215328
	28.355000	0.396208
	28.360000	0.415940
	28.365000	0.228483
	28.370000	0.215328
	28.375000	0.402785
	28.380000	0.415940
	28.385000	0.225194
	28.390000	0.215328
	28.395000	0.402785
	28.400000	0.415940
	28.405000	0.221905
	28.410000	0.221905
	28.415000	0.402785
	28.420000	0.415940
	28.425000	0.225194
	28.430000	0.212039
	28.435000	0.402785
	28.440000	0.412651
	28.445000	0.225194
	28.450000	0.215328
	28.455000	0.406074
	28.460000	0.412651
	28.465000	0.228483
	28.470000	0.212039
	28.475000	0.402785
	28.480000	0.412651
	28.485000	0.228483
	28.490000	0.215328
	28.495000	0.402785
	28.500000	0.412651
	28.505000	0.225194
	28.510000	0.218617
	28.515000	0.406074
	28.520000	0.412651
	28.525000	0.225194
	28.530000	0.218617
	28.535000	0.402785
	28.540000	0.412651
	28.545000	0.225194
	28.550000	0.221905
	28.555000	0.406074
	28.560000	0.412651
	28.565000	0.221905
	28.570000	0.218617
	28.575000	0.406074
	28.580000	0.412651
	28.585000	0.221905
	28.590000	0.221905
	28.595000	0.402785
	28.600000	0.419229
	28.605000	0.221905
	28.610000	0.215328
	28.615000	0.409363
	28.620000	0.409363
	28.625000	0.225194
	28.630000	0.215328
	28.635000	0.409363
	28.640000	0.409363
	28.645000	0.221905
	28.650000	0.228483
	28.655000	0.412651
	28.660000	0.409363
	28.665000	0.221905
	28.670000	0.221905
	28.675000	0.412651
	28.680000	0.412651
	28.685000	0.221905
	28.690000	0.221905
	28.695000	0.409363
	28.700000	0.409363
	28.705000	0.221905
	28.710000	0.225194
	28.715000	0.409363
	28.720000	0.415940
	28.725000	0.221905
	28.730000	0.221905
	28.735000	0.415940
	28.740000	0.412651
	28.745000	0.221905
	28.750000	0.221905
	28.755000	0.412651
	28.760000	0.412651
	28.765000	0.221905
	28.770000	0.228483
	28.775000	0.412651
	28.780000	0.412651
	28.785000	0.225194
	28.790000	0.228483
	28.795000	0.412651
	28.800000	0.409363
	28.805000	0.221905
	28.810000	0.228483
	28.815000	0.415940
	28.820000	0.409363
	28.825000	0.225194
	28.830000	0.231772
	28.835000	0.412651
	28.840000	0.415940
	28.845000	0.225194
	28.850000	0.228483
	28.855000	0.419229
	28.860000	0.412651
	28.865000	0.225194
	28.870000	0.231772
	28.875000	0.419229
	28.880000	0.412651
	28.885000	0.228483
	28.890000	0.231772
	28.895000	0.419229
	28.900000	0.409363
	28.905000	0.225194
	28.910000	0.238349
	28.915000	0.419229
	28.920000	0.412651
	28.925000	0.225194
	28.930000	0.231772
	28.935000	0.422518
	28.940000	0.412651
	28.945000	0.225194
	28.950000	0.231772
	28.955000	0.422518
	28.960000	0.412651
	28.965000	0.228483
	28.970000	0.235060
	28.975000	0.422518
	28.980000	0.412651
	28.985000	0.228483
	28.990000	0.244927
	28.995000	0.422518
	29.000000	0.412651
	29.005000	0.225194
	29.010000	0.238349
	29.015000	0.425806
	29.020000	0.412651
	29.025000	0.228483
	29.030000	0.238349
	29.035000	0.429095
	29.040000	0.415940
	29.045000	0.228483
	29.050000	0.241638
	29.055000	0.429095
	29.060000	0.412651
	29.065000	0.228483
	29.070000	0.244927
	29.075000	0.429095
	29.080000	0.412651
	29.085000	0.225194
	29.090000	0.244927
	29.095000	0.429095
	29.100000	0.415940
	29.105000	0.225194
	29.110000	0.244927
	29.115000	0.432384
	29.120000	0.412651
	29.125000	0.225194
	29.130000	0.241638
	29.135000	0.429095
	29.140000	0.409363
	29.145000	0.221905
	29.150000	0.248215
	29.155000	0.429095
	29.160000	0.406074
	29.165000	0.225194
	29.170000	0.244927
	29.175000	0.429095
	29.180000	0.409363
	29.185000	0.221905
	29.190000	0.241638
	29.195000	0.429095
	29.200000	0.406074
	29.205000	0.221905
	29.210000	0.241638
	29.215000	0.425806
	29.220000	0.406074
	29.225000	0.221905
	29.230000	0.241638
	29.235000	0.425806
	29.240000	0.396208
	29.245000	0.215328
	29.250000	0.241638
	29.255000	0.425806
	29.260000	0.399496
	29.265000	0.215328
	29.270000	0.238349
	29.275000	0.425806
	29.280000	0.406074
	29.285000	0.215328
	29.290000	0.241638
	29.295000	0.422518
	29.300000	0.399496
	29.305000	0.218617
	29.310000	0.244927
	29.315000	0.425806
	29.320000	0.399496
	29.325000	0.221905
	29.330000	0.238349
	29.335000	0.429095
	29.340000	0.402785
	29.345000	0.218617
	29.350000	0.244927
	29.355000	0.429095
	29.360000	0.406074
	29.365000	0.215328
	29.370000	0.244927
	29.375000	0.425806
	29.380000	0.402785
	29.385000	0.215328
	29.390000	0.241638
	29.395000	0.429095
	29.400000	0.399496
	29.405000	0.218617
	29.410000	0.241638
	29.415000	0.422518
	29.420000	0.402785
	29.425000	0.212039
	29.430000	0.244927
	29.435000	0.432384
	29.440000	0.399496
	29.445000	0.212039
	29.450000	0.241638
	29.455000	0.429095
	29.460000	0.396208
	29.465000	0.215328
	29.470000	0.241638
	29.475000	0.422518
	29.480000	0.396208
	29.485000	0.215328
	29.490000	0.238349
	29.495000	0.425806
	29.500000	0.396208
	29.505000	0.212039
	29.510000	0.238349
	29.515000	0.425806
	29.520000	0.386342
	29.525000	0.208751
	29.530000	0.248215
	29.535000	0.425806
	29.540000	0.389630
	29.545000	0.208751
	29.550000	0.238349
	29.555000	0.419229
	29.560000	0.383053
	29.565000	0.205462
	29.570000	0.238349
	29.575000	0.419229
	29.580000	0.386342
	29.585000	0.202173
	29.590000	0.238349
	29.595000	0.422518
	29.600000	0.389630
	29.605000	0.202173
	29.610000	0.238349
	29.615000	0.419229
	29.620000	0.386342
	29.625000	0.198884
	29.630000	0.235060
	29.635000	0.422518
	29.640000	0.383053
	29.645000	0.198884
	29.650000	0.231772
	29.655000	0.422518
	29.660000	0.379764
	29.665000	0.202173
	29.670000	0.241638
	29.675000	0.419229
	29.680000	0.383053
	29.685000	0.205462
	29.690000	0.241638
	29.695000	0.422518
	29.700000	0.383053
	29.705000	0.195596
	29.710000	0.238349
	29.715000	0.422518
	29.720000	0.383053
	29.725000	0.198884
	29.730000	0.238349
	29.735000	0.425806
	29.740000	0.383053
	29.745000	0.202173
	29.750000	0.241638
	29.755000	0.425806
	29.760000	0.383053
	29.765000	0.195596
	29.770000	0.244927
	29.775000	0.422518
	29.780000	0.379764
	29.785000	0.202173
	29.790000	0.241638
	29.795000	0.422518
	29.800000	0.383053
	29.805000	0.198884
	29.810000	0.244927
	29.815000	0.425806
	29.820000	0.379764
	29.825000	0.202173
	29.830000	0.244927
	29.835000	0.422518
	29.840000	0.379764
	29.845000	0.198884
	29.850000	0.241638
	29.855000	0.422518
	29.860000	0.379764
	29.865000	0.195596
	29.870000	0.244927
	29.875000	0.422518
	29.880000	0.379764
	29.885000	0.195596
	29.890000	0.248215
	29.895000	0.429095
	29.900000	0.379764
	29.905000	0.202173
	29.910000	0.248215
	29.915000	0.425806
	29.920000	0.379764
	29.925000	0.198884
	29.930000	0.244927
	29.935000	0.422518
	29.940000	0.383053
	29.945000	0.195596
	29.950000	0.248215
	29.955000	0.429095
	29.960000	0.379764
	29.965000	0.198884
	29.970000	0.248215
	29.975000	0.429095
	29.980000	0.383053
	29.985000	0.195596
	29.990000	0.248215
	29.995000	0.425806
	30.000000	0.376475
	30.005000	0.192307
	30.010000	0.248215
	30.015000	0.429095
	30.020000	0.373187
	30.025000	0.198884
	30.030000	0.248215
	30.035000	0.425806
	30.040000	0.373187
	30.045000	0.192307
	30.050000	0.248215
	30.055000	0.422518
	30.060000	0.376475
	30.065000	0.189018
	30.070000	0.244927
	30.075000	0.422518
	30.080000	0.369898
	30.085000	0.189018
	30.090000	0.244927
	30.095000	0.425806
	30.100000	0.373187
	30.105000	0.192307
	30.110000	0.241638
	30.115000	0.425806
	30.120000	0.369898
	30.125000	0.192307
	30.130000	0.244927
	30.135000	0.425806
	30.140000	0.369898
	30.145000	0.195596
	30.150000	0.248215
	30.155000	0.425806
	30.160000	0.373187
	30.165000	0.195596
	30.170000	0.248215
	30.175000	0.425806
	30.180000	0.366609
	30.185000	0.192307
	30.190000	0.248215
	30.195000	0.422518
	30.200000	0.373187
	30.205000	0.192307
	30.210000	0.251504
	30.215000	0.429095
	30.220000	0.366609
	30.225000	0.189018
	30.230000	0.254793
	30.235000	0.432384
	30.240000	0.369898
	30.245000	0.189018
	30.250000	0.248215
	30.255000	0.429095
	30.260000	0.369898
	30.265000	0.192307
	30.270000	0.248215
	30.275000	0.432384
	30.280000	0.366609
	30.285000	0.189018
	30.290000	0.251504
	30.295000	0.432384
	30.300000	0.363321
	30.305000	0.185730
	30.310000	0.251504
	30.315000	0.429095
	30.320000	0.360032
	30.325000	0.189018
	30.330000	0.248215
	30.335000	0.422518
	30.340000	0.363321
	30.345000	0.185730
	30.350000	0.251504
	30.355000	0.425806
	30.360000	0.363321
	30.365000	0.189018
	30.370000	0.251504
	30.375000	0.425806
	30.380000	0.363321
	30.385000	0.189018
	30.390000	0.254793
	30.395000	0.432384
	30.400000	0.366609
	30.405000	0.182441
	30.410000	0.254793
	30.415000	0.425806
	30.420000	0.366609
	30.425000	0.189018
	30.430000	0.254793
	30.435000	0.429095
	30.440000	0.360032
	30.445000	0.185730
	30.450000	0.254793
	30.455000	0.432384
	30.460000	0.353454
	30.465000	0.189018
	30.470000	0.254793
	30.475000	0.425806
	30.480000	0.353454
	30.485000	0.185730
	30.490000	0.254793
	30.495000	0.425806
	30.500000	0.353454
	30.505000	0.182441
	30.510000	0.251504
	30.515000	0.429095
	30.520000	0.353454
	30.525000	0.182441
	30.530000	0.254793
	30.535000	0.432384
	30.540000	0.356743
	30.545000	0.179152
	30.550000	0.248215
	30.555000	0.422518
	30.560000	0.353454
	30.565000	0.179152
	30.570000	0.248215
	30.575000	0.425806
	30.580000	0.346877
	30.585000	0.175863
	30.590000	0.254793
	30.595000	0.425806
	30.600000	0.346877
	30.605000	0.175863
	30.610000	0.251504
	30.615000	0.419229
	30.620000	0.350166
	30.625000	0.179152
	30.630000	0.251504
	30.635000	0.419229
	30.640000	0.350166
	30.645000	0.175863
	30.650000	0.248215
	30.655000	0.425806
	30.660000	0.346877
	30.665000	0.172575
	30.670000	0.248215
	30.675000	0.425806
	30.680000	0.343588
	30.685000	0.175863
	30.690000	0.254793
	30.695000	0.422518
	30.700000	0.343588
	30.705000	0.172575
	30.710000	0.251504
	30.715000	0.425806
	30.720000	0.340299
	30.725000	0.175863
	30.730000	0.251504
	30.735000	0.422518
	30.740000	0.343588
	30.745000	0.172575
	30.750000	0.251504
	30.755000	0.422518
	30.760000	0.343588
	30.765000	0.172575
	30.770000	0.244927
	30.775000	0.425806
	30.780000	0.337011
	30.785000	0.169286
	30.790000	0.254793
	30.795000	0.419229
	30.800000	0.337011
	30.805000	0.172575
	30.810000	0.254793
	30.815000	0.412651
	30.820000	0.340299
	30.825000	0.169286
	30.830000	0.251504
	30.835000	0.419229
	30.840000	0.337011
	30.845000	0.169286
	30.850000	0.251504
	30.855000	0.419229
	30.860000	0.333722
	30.865000	0.172575
	30.870000	0.251504
	30.875000	0.419229
	30.880000	0.340299
	30.885000	0.169286
	30.890000	0.251504
	30.895000	0.422518
	30.900000	0.330433
	30.905000	0.165997
	30.910000	0.254793
	30.915000	0.422518
	30.920000	0.333722
	30.925000	0.165997
	30.930000	0.254793
	30.935000	0.419229
	30.940000	0.337011
	30.945000	0.169286
	30.950000	0.254793
	30.955000	0.419229
	30.960000	0.333722
	30.965000	0.169286
	30.970000	0.258081
	30.975000	0.419229
	30.980000	0.330433
	30.985000	0.169286
	30.990000	0.251504
	30.995000	0.422518
	31.000000	0.333722
	31.005000	0.169286
	31.010000	0.258081
	31.015000	0.422518
	31.020000	0.327145
	31.025000	0.169286
	31.030000	0.258081
	31.035000	0.422518
	31.040000	0.330433
	31.045000	0.169286
	31.050000	0.261370
	31.055000	0.422518
	31.060000	0.333722
	31.065000	0.169286
	31.070000	0.261370
	31.075000	0.422518
	31.080000	0.337011
	31.085000	0.169286
	31.090000	0.258081
	31.095000	0.429095
	31.100000	0.337011
	31.105000	0.175863
	31.110000	0.264659
	31.115000	0.422518
	31.120000	0.333722
	31.125000	0.172575
	31.130000	0.264659
	31.135000	0.425806
	31.140000	0.327145
	31.145000	0.169286
	31.150000	0.264659
	31.155000	0.429095
	31.160000	0.330433
	31.165000	0.165997
	31.170000	0.267948
	31.175000	0.422518
	31.180000	0.330433
	31.185000	0.169286
	31.190000	0.264659
	31.195000	0.425806
	31.200000	0.330433
	31.205000	0.169286
	31.210000	0.261370
	31.215000	0.425806
	31.220000	0.330433
	31.225000	0.169286
	31.230000	0.264659
	31.235000	0.422518
	31.240000	0.330433
	31.245000	0.169286
	31.250000	0.264659
	31.255000	0.422518
	31.260000	0.323856
	31.265000	0.169286
	31.270000	0.267948
	31.275000	0.425806
	31.280000	0.327145
	31.285000	0.175863
	31.290000	0.274525
	31.295000	0.432384
	31.300000	0.327145
	31.305000	0.169286
	31.310000	0.264659
	31.315000	0.425806
	31.320000	0.323856
	31.325000	0.169286
	31.330000	0.274525
	31.335000	0.429095
	31.340000	0.330433
	31.345000	0.169286
	31.350000	0.274525
	31.355000	0.422518
	31.360000	0.327145
	31.365000	0.169286
	31.370000	0.267948
	31.375000	0.429095
	31.380000	0.327145
	31.385000	0.169286
	31.390000	0.267948
	31.395000	0.429095
	31.400000	0.330433
	31.405000	0.172575
	31.410000	0.277814
	31.415000	0.432384
	31.420000	0.330433
	31.425000	0.175863
	31.430000	0.281102
	31.435000	0.438961
	31.440000	0.333722
	31.445000	0.185730
	31.450000	0.294257
	31.455000	0.452116
	31.460000	0.343588
	31.465000	0.195596
	31.470000	0.304124
	31.475000	0.461982
	31.480000	0.356743
	31.485000	0.198884
	31.490000	0.310701
	31.495000	0.461982
	31.500000	0.353454
	31.505000	0.198884
	31.510000	0.307412
	31.515000	0.461982
	31.520000	0.356743
	31.525000	0.198884
	31.530000	0.307412
	31.535000	0.465271
	31.540000	0.353454
	31.545000	0.205462
	31.550000	0.313990
	31.555000	0.465271
	31.560000	0.356743
	31.565000	0.202173
	31.570000	0.307412
	31.575000	0.461982
	31.580000	0.353454
	31.585000	0.195596
	31.590000	0.310701
	31.595000	0.458694
	31.600000	0.343588
	31.605000	0.192307
	31.610000	0.300835
	31.615000	0.452116
	31.620000	0.340299
	31.625000	0.189018
	31.630000	0.297546
	31.635000	0.445539
	31.640000	0.333722
	31.645000	0.179152
	31.650000	0.290969
	31.655000	0.438961
	31.660000	0.323856
	31.665000	0.175863
	31.670000	0.281102
	31.675000	0.432384
	31.680000	0.313990
	31.685000	0.169286
	31.690000	0.281102
	31.695000	0.425806
	31.700000	0.313990
	31.705000	0.159420
	31.710000	0.274525
	31.715000	0.419229
	31.720000	0.307412
	31.725000	0.162708
	31.730000	0.267948
	31.735000	0.415940
	31.740000	0.304124
	31.745000	0.159420
	31.750000	0.267948
	31.755000	0.419229
	31.760000	0.307412
	31.765000	0.159420
	31.770000	0.274525
	31.775000	0.419229
	31.780000	0.304124
	31.785000	0.149554
	31.790000	0.274525
	31.795000	0.415940
	31.800000	0.304124
	31.805000	0.156131
	31.810000	0.274525
	31.815000	0.419229
	31.820000	0.307412
	31.825000	0.159420
	31.830000	0.277814
	31.835000	0.415940
	31.840000	0.307412
	31.845000	0.159420
	31.850000	0.281102
	31.855000	0.425806
	31.860000	0.307412
	31.865000	0.162708
	31.870000	0.277814
	31.875000	0.425806
	31.880000	0.304124
	31.885000	0.162708
	31.890000	0.284391
	31.895000	0.422518
	31.900000	0.304124
	31.905000	0.162708
	31.910000	0.284391
	31.915000	0.429095
	31.920000	0.304124
	31.925000	0.162708
	31.930000	0.281102
	31.935000	0.429095
	31.940000	0.304124
	31.945000	0.165997
	31.950000	0.287680
	31.955000	0.432384
	31.960000	0.307412
	31.965000	0.165997
	31.970000	0.290969
	31.975000	0.429095
	31.980000	0.304124
	31.985000	0.169286
	31.990000	0.287680
	31.995000	0.432384
	32.000000	0.307412
	32.005000	0.165997
	32.010000	0.287680
	32.015000	0.425806
	32.020000	0.304124
	32.025000	0.162708
	32.030000	0.287680
	32.035000	0.425806
	32.040000	0.304124
	32.045000	0.162708
	32.050000	0.290969
	32.055000	0.429095
	32.060000	0.304124
	32.065000	0.159420
	32.070000	0.290969
	32.075000	0.429095
	32.080000	0.300835
	32.085000	0.162708
	32.090000	0.287680
	32.095000	0.429095
	32.100000	0.297546
	32.105000	0.165997
	32.110000	0.294257
	32.115000	0.425806
	32.120000	0.297546
	32.125000	0.162708
	32.130000	0.284391
	32.135000	0.425806
	32.140000	0.297546
	32.145000	0.162708
	32.150000	0.294257
	32.155000	0.429095
	32.160000	0.300835
	32.165000	0.169286
	32.170000	0.297546
	32.175000	0.432384
	32.180000	0.300835
	32.185000	0.169286
	32.190000	0.290969
	32.195000	0.432384
	32.200000	0.300835
	32.205000	0.165997
	32.210000	0.297546
	32.215000	0.432384
	32.220000	0.304124
	32.225000	0.165997
	32.230000	0.294257
	32.235000	0.432384
	32.240000	0.300835
	32.245000	0.172575
	32.250000	0.300835
	32.255000	0.432384
	32.260000	0.304124
	32.265000	0.169286
	32.270000	0.300835
	32.275000	0.432384
	32.280000	0.297546
	32.285000	0.169286
	32.290000	0.294257
	32.295000	0.435672
	32.300000	0.300835
	32.305000	0.165997
	32.310000	0.300835
	32.315000	0.432384
	32.320000	0.294257
	32.325000	0.169286
	32.330000	0.297546
	32.335000	0.429095
	32.340000	0.297546
	32.345000	0.165997
	32.350000	0.297546
	32.355000	0.432384
	32.360000	0.294257
	32.365000	0.169286
	32.370000	0.300835
	32.375000	0.425806
	32.380000	0.297546
	32.385000	0.165997
	32.390000	0.297546
	32.395000	0.429095
	32.400000	0.290969
	32.405000	0.162708
	32.410000	0.300835
	32.415000	0.429095
	32.420000	0.290969
	32.425000	0.165997
	32.430000	0.304124
	32.435000	0.429095
	32.440000	0.290969
	32.445000	0.162708
	32.450000	0.300835
	32.455000	0.425806
	32.460000	0.287680
	32.465000	0.165997
	32.470000	0.300835
	32.475000	0.432384
	32.480000	0.290969
	32.485000	0.165997
	32.490000	0.304124
	32.495000	0.432384
	32.500000	0.284391
	32.505000	0.162708
	32.510000	0.304124
	32.515000	0.429095
	32.520000	0.287680
	32.525000	0.159420
	32.530000	0.300835
	32.535000	0.425806
	32.540000	0.290969
	32.545000	0.159420
	32.550000	0.304124
	32.555000	0.425806
	32.560000	0.284391
	32.565000	0.162708
	32.570000	0.304124
	32.575000	0.432384
	32.580000	0.287680
	32.585000	0.159420
	32.590000	0.300835
	32.595000	0.422518
	32.600000	0.281102
	32.605000	0.162708
	32.610000	0.304124
	32.615000	0.425806
	32.620000	0.284391
	32.625000	0.159420
	32.630000	0.304124
	32.635000	0.422518
	32.640000	0.284391
	32.645000	0.156131
	32.650000	0.304124
	32.655000	0.422518
	32.660000	0.281102
	32.665000	0.162708
	32.670000	0.300835
	32.675000	0.419229
	32.680000	0.281102
	32.685000	0.159420
	32.690000	0.304124
	32.695000	0.425806
	32.700000	0.277814
	32.705000	0.162708
	32.710000	0.300835
	32.715000	0.425806
	32.720000	0.277814
	32.725000	0.159420
	32.730000	0.300835
	32.735000	0.422518
	32.740000	0.277814
	32.745000	0.159420
	32.750000	0.307412
	32.755000	0.425806
	32.760000	0.281102
	32.765000	0.159420
	32.770000	0.304124
	32.775000	0.425806
	32.780000	0.274525
	32.785000	0.159420
	32.790000	0.297546
	32.795000	0.422518
	32.800000	0.274525
	32.805000	0.159420
	32.810000	0.304124
	32.815000	0.415940
	32.820000	0.271236
	32.825000	0.162708
	32.830000	0.307412
	32.835000	0.422518
	32.840000	0.274525
	32.845000	0.159420
	32.850000	0.304124
	32.855000	0.415940
	32.860000	0.271236
	32.865000	0.159420
	32.870000	0.307412
	32.875000	0.419229
	32.880000	0.274525
	32.885000	0.159420
	32.890000	0.307412
	32.895000	0.415940
	32.900000	0.267948
	32.905000	0.159420
	32.910000	0.304124
	32.915000	0.419229
	32.920000	0.267948
	32.925000	0.152842
	32.930000	0.307412
	32.935000	0.419229
	32.940000	0.271236
	32.945000	0.162708
	32.950000	0.307412
	32.955000	0.419229
	32.960000	0.267948
	32.965000	0.156131
	32.970000	0.307412
	32.975000	0.422518
	32.980000	0.267948
	32.985000	0.156131
	32.990000	0.307412
	32.995000	0.415940
	33.000000	0.267948
	33.005000	0.156131
	33.010000	0.307412
	33.015000	0.419229
	33.020000	0.264659
	33.025000	0.156131
	33.030000	0.310701
	33.035000	0.415940
	33.040000	0.261370
	33.045000	0.156131
	33.050000	0.310701
	33.055000	0.419229
	33.060000	0.264659
	33.065000	0.159420
	33.070000	0.310701
	33.075000	0.415940
	33.080000	0.264659
	33.085000	0.152842
	33.090000	0.310701
	33.095000	0.422518
	33.100000	0.264659
	33.105000	0.159420
	33.110000	0.310701
	33.115000	0.419229
	33.120000	0.264659
	33.125000	0.156131
	33.130000	0.313990
	33.135000	0.419229
	33.140000	0.261370
	33.145000	0.156131
	33.150000	0.310701
	33.155000	0.415940
	33.160000	0.261370
	33.165000	0.159420
	33.170000	0.307412
	33.175000	0.419229
	33.180000	0.261370
	33.185000	0.159420
	33.190000	0.313990
	33.195000	0.415940
	33.200000	0.258081
	33.205000	0.159420
	33.210000	0.320567
	33.215000	0.415940
	33.220000	0.258081
	33.225000	0.156131
	33.230000	0.317278
	33.235000	0.419229
	33.240000	0.264659
	33.245000	0.159420
	33.250000	0.313990
	33.255000	0.422518
	33.260000	0.261370
	33.265000	0.162708
	33.270000	0.320567
	33.275000	0.415940
	33.280000	0.258081
	33.285000	0.159420
	33.290000	0.313990
	33.295000	0.419229
	33.300000	0.254793
	33.305000	0.159420
	33.310000	0.313990
	33.315000	0.415940
	33.320000	0.258081
	33.325000	0.156131
	33.330000	0.320567
	33.335000	0.415940
	33.340000	0.254793
	33.345000	0.156131
	33.350000	0.317278
	33.355000	0.419229
	33.360000	0.254793
	33.365000	0.152842
	33.370000	0.320567
	33.375000	0.412651
	33.380000	0.258081
	33.385000	0.156131
	33.390000	0.317278
	33.395000	0.412651
	33.400000	0.251504
	33.405000	0.156131
	33.410000	0.317278
	33.415000	0.412651
	33.420000	0.251504
	33.425000	0.156131
	33.430000	0.313990
	33.435000	0.409363
	33.440000	0.254793
	33.445000	0.156131
	33.450000	0.313990
	33.455000	0.406074
	33.460000	0.248215
	33.465000	0.156131
	33.470000	0.310701
	33.475000	0.406074
	33.480000	0.248215
	33.485000	0.149554
	33.490000	0.313990
	33.495000	0.409363
	33.500000	0.238349
	33.505000	0.149554
	33.510000	0.310701
	33.515000	0.402785
	33.520000	0.235060
	33.525000	0.146265
	33.530000	0.307412
	33.535000	0.399496
	33.540000	0.238349
	33.545000	0.139687
	33.550000	0.310701
	33.555000	0.399496
	33.560000	0.231772
	33.565000	0.142976
	33.570000	0.307412
	33.575000	0.399496
	33.580000	0.235060
	33.585000	0.142976
	33.590000	0.307412
	33.595000	0.396208
	33.600000	0.231772
	33.605000	0.146265
	33.610000	0.313990
	33.615000	0.402785
	33.620000	0.235060
	33.625000	0.146265
	33.630000	0.317278
	33.635000	0.402785
	33.640000	0.238349
	33.645000	0.152842
	33.650000	0.313990
	33.655000	0.399496
	33.660000	0.235060
	33.665000	0.156131
	33.670000	0.323856
	33.675000	0.412651
	33.680000	0.235060
	33.685000	0.156131
	33.690000	0.323856
	33.695000	0.409363
	33.700000	0.238349
	33.705000	0.156131
	33.710000	0.323856
	33.715000	0.409363
	33.720000	0.244927
	33.725000	0.152842
	33.730000	0.330433
	33.735000	0.412651
	33.740000	0.241638
	33.745000	0.159420
	33.750000	0.327145
	33.755000	0.409363
	33.760000	0.241638
	33.765000	0.156131
	33.770000	0.330433
	33.775000	0.412651
	33.780000	0.248215
	33.785000	0.162708
	33.790000	0.327145
	33.795000	0.415940
	33.800000	0.244927
	33.805000	0.169286
	33.810000	0.337011
	33.815000	0.415940
	33.820000	0.248215
	33.825000	0.172575
	33.830000	0.337011
	33.835000	0.419229
	33.840000	0.248215
	33.845000	0.172575
	33.850000	0.343588
	33.855000	0.425806
	33.860000	0.258081
	33.865000	0.182441
	33.870000	0.353454
	33.875000	0.435672
	33.880000	0.267948
	33.885000	0.185730
	33.890000	0.360032
	33.895000	0.438961
	33.900000	0.274525
	33.905000	0.198884
	33.910000	0.366609
	33.915000	0.448827
	33.920000	0.277814
	33.925000	0.202173
	33.930000	0.369898
	33.935000	0.452116
	33.940000	0.281102
	33.945000	0.205462
	33.950000	0.376475
	33.955000	0.448827
	33.960000	0.277814
	33.965000	0.198884
	33.970000	0.369898
	33.975000	0.445539
	33.980000	0.274525
	33.985000	0.195596
	33.990000	0.373187
	33.995000	0.438961
	34.000000	0.267948
	34.005000	0.195596
	34.010000	0.369898
	34.015000	0.438961
	34.020000	0.261370
	34.025000	0.189018
	34.030000	0.360032
	34.035000	0.432384
	34.040000	0.254793
	34.045000	0.182441
	34.050000	0.350166
	34.055000	0.425806
	34.060000	0.254793
	34.065000	0.179152
	34.070000	0.350166
	34.075000	0.425806
	34.080000	0.251504
	34.085000	0.182441
	34.090000	0.346877
	34.095000	0.419229
	34.100000	0.251504
	34.105000	0.175863
	34.110000	0.350166
	34.115000	0.419229
	34.120000	0.251504
	34.125000	0.179152
	34.130000	0.346877
	34.135000	0.419229
	34.140000	0.241638
	34.145000	0.172575
	34.150000	0.343588
	34.155000	0.419229
	34.160000	0.241638
	34.165000	0.172575
	34.170000	0.343588
	34.175000	0.409363
	34.180000	0.235060
	34.185000	0.165997
	34.190000	0.337011
	34.195000	0.409363
	34.200000	0.231772
	34.205000	0.169286
	34.210000	0.333722
	34.215000	0.406074
	34.220000	0.228483
	34.225000	0.159420
	34.230000	0.333722
	34.235000	0.406074
	34.240000	0.228483
	34.245000	0.162708
	34.250000	0.340299
	34.255000	0.402785
	34.260000	0.225194
	34.265000	0.156131
	34.270000	0.337011
	34.275000	0.402785
	34.280000	0.225194
	34.285000	0.159420
	34.290000	0.337011
	34.295000	0.399496
	34.300000	0.221905
	34.305000	0.159420
	34.310000	0.333722
	34.315000	0.399496
	34.320000	0.221905
	34.325000	0.162708
	34.330000	0.330433
	34.335000	0.396208
	34.340000	0.218617
	34.345000	0.162708
	34.350000	0.340299
	34.355000	0.399496
	34.360000	0.225194
	34.365000	0.162708
	34.370000	0.340299
	34.375000	0.396208
	34.380000	0.225194
	34.385000	0.162708
	34.390000	0.343588
	34.395000	0.402785
	34.400000	0.228483
	34.405000	0.169286
	34.410000	0.337011
	34.415000	0.402785
	34.420000	0.225194
	34.425000	0.169286
	34.430000	0.343588
	34.435000	0.402785
	34.440000	0.228483
	34.445000	0.169286
	34.450000	0.346877
	34.455000	0.402785
	34.460000	0.228483
	34.465000	0.172575
	34.470000	0.343588
	34.475000	0.406074
	34.480000	0.231772
	34.485000	0.172575
	34.490000	0.350166
	34.495000	0.406074
	34.500000	0.228483
	34.505000	0.169286
	34.510000	0.346877
	34.515000	0.402785
	34.520000	0.225194
	34.525000	0.169286
	34.530000	0.346877
	34.535000	0.406074
	34.540000	0.221905
	34.545000	0.169286
	34.550000	0.343588
	34.555000	0.399496
	34.560000	0.221905
	34.565000	0.165997
	34.570000	0.343588
	34.575000	0.396208
	34.580000	0.218617
	34.585000	0.165997
	34.590000	0.340299
	34.595000	0.396208
	34.600000	0.212039
	34.605000	0.162708
	34.610000	0.343588
	34.615000	0.392919
	34.620000	0.212039
	34.625000	0.159420
	34.630000	0.343588
	34.635000	0.392919
	34.640000	0.208751
	34.645000	0.162708
	34.650000	0.340299
	34.655000	0.392919
	34.660000	0.212039
	34.665000	0.159420
	34.670000	0.343588
	34.675000	0.392919
	34.680000	0.208751
	34.685000	0.156131
	34.690000	0.340299
	34.695000	0.389630
	34.700000	0.212039
	34.705000	0.156131
	34.710000	0.340299
	34.715000	0.389630
	34.720000	0.208751
	34.725000	0.159420
	34.730000	0.343588
	34.735000	0.392919
	34.740000	0.212039
	34.745000	0.162708
	34.750000	0.346877
	34.755000	0.392919
	34.760000	0.208751
	34.765000	0.162708
	34.770000	0.343588
	34.775000	0.392919
	34.780000	0.208751
	34.785000	0.169286
	34.790000	0.346877
	34.795000	0.389630
	34.800000	0.212039
	34.805000	0.165997
	34.810000	0.343588
	34.815000	0.389630
	34.820000	0.212039
	34.825000	0.165997
	34.830000	0.343588
	34.835000	0.392919
	34.840000	0.208751
	34.845000	0.169286
	34.850000	0.346877
	34.855000	0.392919
	34.860000	0.208751
	34.865000	0.169286
	34.870000	0.346877
	34.875000	0.392919
	34.880000	0.208751
	34.885000	0.165997
	34.890000	0.350166
	34.895000	0.392919
	34.900000	0.208751
	34.905000	0.162708
	34.910000	0.350166
	34.915000	0.389630
	34.920000	0.208751
	34.925000	0.169286
	34.930000	0.353454
	34.935000	0.386342
	34.940000	0.212039
	34.945000	0.165997
	34.950000	0.350166
	34.955000	0.386342
	34.960000	0.208751
	34.965000	0.169286
	34.970000	0.350166
	34.975000	0.392919
	34.980000	0.208751
	34.985000	0.172575
	34.990000	0.356743
	34.995000	0.389630
	35.000000	0.208751
	35.005000	0.169286
	35.010000	0.353454
	35.015000	0.386342
	35.020000	0.208751
	35.025000	0.169286
	35.030000	0.353454
	35.035000	0.389630
	35.040000	0.208751
	35.045000	0.169286
	35.050000	0.353454
	35.055000	0.392919
	35.060000	0.205462
	35.065000	0.172575
	35.070000	0.353454
	35.075000	0.389630
	35.080000	0.205462
	35.085000	0.169286
	35.090000	0.350166
	35.095000	0.389630
	35.100000	0.208751
	35.105000	0.165997
	35.110000	0.356743
	35.115000	0.392919
	35.120000	0.208751
	35.125000	0.179152
	35.130000	0.356743
	35.135000	0.392919
	35.140000	0.208751
	35.145000	0.179152
	35.150000	0.360032
	35.155000	0.389630
	35.160000	0.208751
	35.165000	0.175863
	35.170000	0.356743
	35.175000	0.389630
	35.180000	0.212039
	35.185000	0.175863
	35.190000	0.360032
	35.195000	0.389630
	35.200000	0.208751
	35.205000	0.179152
	35.210000	0.363321
	35.215000	0.392919
	35.220000	0.202173
	35.225000	0.175863
	35.230000	0.360032
	35.235000	0.389630
	35.240000	0.205462
	35.245000	0.175863
	35.250000	0.360032
	35.255000	0.389630
	35.260000	0.202173
	35.265000	0.175863
	35.270000	0.363321
	35.275000	0.383053
	35.280000	0.208751
	35.285000	0.175863
	35.290000	0.366609
	35.295000	0.389630
	35.300000	0.202173
	35.305000	0.182441
	35.310000	0.366609
	35.315000	0.386342
	35.320000	0.198884
	35.325000	0.175863
	35.330000	0.363321
	35.335000	0.386342
	35.340000	0.202173
	35.345000	0.179152
	35.350000	0.366609
	35.355000	0.389630
	35.360000	0.202173
	35.365000	0.182441
	35.370000	0.366609
	35.375000	0.389630
	35.380000	0.202173
	35.385000	0.182441
	35.390000	0.369898
	35.395000	0.389630
	35.400000	0.205462
	35.405000	0.179152
	35.410000	0.369898
	35.415000	0.386342
	35.420000	0.202173
	35.425000	0.179152
	35.430000	0.366609
	35.435000	0.386342
	35.440000	0.202173
	35.445000	0.179152
	35.450000	0.366609
	35.455000	0.386342
	35.460000	0.202173
	35.465000	0.182441
	35.470000	0.369898
	35.475000	0.386342
	35.480000	0.202173
	35.485000	0.185730
	35.490000	0.373187
	35.495000	0.389630
	35.500000	0.202173
	35.505000	0.185730
	35.510000	0.366609
	35.515000	0.389630
	35.520000	0.202173
	35.525000	0.182441
	35.530000	0.369898
	35.535000	0.383053
	35.540000	0.198884
	35.545000	0.179152
	35.550000	0.369898
	35.555000	0.383053
	35.560000	0.202173
	35.565000	0.185730
	35.570000	0.369898
	35.575000	0.386342
	35.580000	0.202173
	35.585000	0.185730
	35.590000	0.369898
	35.595000	0.386342
	35.600000	0.202173
	35.605000	0.182441
	35.610000	0.369898
	35.615000	0.383053
	35.620000	0.198884
	35.625000	0.185730
	35.630000	0.373187
	35.635000	0.383053
	35.640000	0.195596
	35.645000	0.182441
	35.650000	0.376475
	35.655000	0.379764
	35.660000	0.202173
	35.665000	0.189018
	35.670000	0.373187
	35.675000	0.379764
	35.680000	0.195596
	35.685000	0.182441
	35.690000	0.373187
	35.695000	0.383053
	35.700000	0.195596
	35.705000	0.189018
	35.710000	0.373187
	35.715000	0.379764
	35.720000	0.195596
	35.725000	0.189018
	35.730000	0.369898
	35.735000	0.379764
	35.740000	0.195596
	35.745000	0.192307
	35.750000	0.376475
	35.755000	0.383053
	35.760000	0.195596
	35.765000	0.185730
	35.770000	0.376475
	35.775000	0.379764
	35.780000	0.195596
	35.785000	0.189018
	35.790000	0.379764
	35.795000	0.383053
	35.800000	0.195596
	35.805000	0.189018
	35.810000	0.379764
	35.815000	0.386342
	35.820000	0.198884
	35.825000	0.192307
	35.830000	0.376475
	35.835000	0.383053
	35.840000	0.198884
	35.845000	0.189018
	35.850000	0.379764
	35.855000	0.379764
	35.860000	0.195596
	35.865000	0.189018
	35.870000	0.383053
	35.875000	0.383053
	35.880000	0.198884
	35.885000	0.195596
	35.890000	0.383053
	35.895000	0.386342
	35.900000	0.198884
	35.905000	0.198884
	35.910000	0.386342
	35.915000	0.389630
	35.920000	0.198884
	35.925000	0.202173
	35.930000	0.386342
	35.935000	0.383053
	35.940000	0.195596
	35.945000	0.202173
	35.950000	0.383053
	35.955000	0.386342
	35.960000	0.195596
	35.965000	0.195596
	35.970000	0.386342
	35.975000	0.383053
	35.980000	0.198884
	35.985000	0.198884
	35.990000	0.383053
	35.995000	0.383053
	36.000000	0.195596
	36.005000	0.202173
	36.010000	0.389630
	36.015000	0.386342
	36.020000	0.202173
	36.025000	0.195596
	36.030000	0.383053
	36.035000	0.383053
	36.040000	0.195596
	36.045000	0.198884
	36.050000	0.386342
	36.055000	0.383053
	36.060000	0.195596
	36.065000	0.198884
	36.070000	0.389630
	36.075000	0.379764
	36.080000	0.195596
	36.085000	0.198884
	36.090000	0.386342
	36.095000	0.383053
	36.100000	0.195596
	36.105000	0.198884
	36.110000	0.389630
	36.115000	0.379764
	36.120000	0.192307
	36.125000	0.198884
	36.130000	0.389630
	36.135000	0.379764
	36.140000	0.192307
	36.145000	0.205462
	36.150000	0.383053
	36.155000	0.376475
	36.160000	0.192307
	36.165000	0.202173
	36.170000	0.383053
	36.175000	0.379764
	36.180000	0.192307
	36.185000	0.198884
	36.190000	0.386342
	36.195000	0.376475
	36.200000	0.189018
	36.205000	0.198884
	36.210000	0.392919
	36.215000	0.379764
	36.220000	0.189018
	36.225000	0.198884
	36.230000	0.389630
	36.235000	0.379764
	36.240000	0.189018
	36.245000	0.205462
	36.250000	0.389630
	36.255000	0.373187
	36.260000	0.189018
	36.265000	0.198884
	36.270000	0.389630
	36.275000	0.373187
	36.280000	0.185730
	36.285000	0.202173
	36.290000	0.389630
	36.295000	0.373187
	36.300000	0.185730
	36.305000	0.202173
	36.310000	0.386342
	36.315000	0.373187
	36.320000	0.189018
	36.325000	0.205462
	36.330000	0.386342
	36.335000	0.369898
	36.340000	0.182441
	36.345000	0.198884
	36.350000	0.386342
	36.355000	0.373187
	36.360000	0.182441
	36.365000	0.198884
	36.370000	0.383053
	36.375000	0.369898
	36.380000	0.182441
	36.385000	0.202173
	36.390000	0.392919
	36.395000	0.369898
	36.400000	0.185730
	36.405000	0.205462
	36.410000	0.392919
	36.415000	0.376475
	36.420000	0.179152
	36.425000	0.202173
	36.430000	0.389630
	36.435000	0.369898
	36.440000	0.182441
	36.445000	0.202173
	36.450000	0.386342
	36.455000	0.366609
	36.460000	0.179152
	36.465000	0.205462
	36.470000	0.389630
	36.475000	0.366609
	36.480000	0.182441
	36.485000	0.208751
	36.490000	0.392919
	36.495000	0.366609
	36.500000	0.182441
	36.505000	0.202173
	36.510000	0.392919
	36.515000	0.363321
	36.520000	0.182441
	36.525000	0.202173
	36.530000	0.389630
	36.535000	0.366609
	36.540000	0.179152
	36.545000	0.202173
	36.550000	0.392919
	36.555000	0.363321
	36.560000	0.185730
	36.565000	0.208751
	36.570000	0.389630
	36.575000	0.366609
	36.580000	0.182441
	36.585000	0.208751
	36.590000	0.389630
	36.595000	0.366609
	36.600000	0.172575
	36.605000	0.205462
	36.610000	0.389630
	36.615000	0.360032
	36.620000	0.175863
	36.625000	0.202173
	36.630000	0.389630
	36.635000	0.363321
	36.640000	0.175863
	36.645000	0.205462
	36.650000	0.389630
	36.655000	0.360032
	36.660000	0.175863
	36.665000	0.202173
	36.670000	0.389630
	36.675000	0.356743
	36.680000	0.172575
	36.685000	0.208751
	36.690000	0.392919
	36.695000	0.356743
	36.700000	0.175863
	36.705000	0.208751
	36.710000	0.396208
	36.715000	0.369898
	36.720000	0.182441
	36.725000	0.215328
	36.730000	0.399496
	36.735000	0.369898
	36.740000	0.189018
	36.745000	0.225194
	36.750000	0.412651
	36.755000	0.379764
	36.760000	0.198884
	36.765000	0.235060
	36.770000	0.422518
	36.775000	0.392919
	36.780000	0.205462
	36.785000	0.244927
	36.790000	0.432384
	36.795000	0.392919
	36.800000	0.205462
	36.805000	0.244927
	36.810000	0.425806
	36.815000	0.389630
	36.820000	0.202173
	36.825000	0.238349
	36.830000	0.419229
	36.835000	0.379764
	36.840000	0.198884
	36.845000	0.228483
	36.850000	0.419229
	36.855000	0.379764
	36.860000	0.189018
	36.865000	0.225194
	36.870000	0.415940
	36.875000	0.369898
	36.880000	0.189018
	36.885000	0.225194
	36.890000	0.412651
	36.895000	0.373187
	36.900000	0.189018
	36.905000	0.221905
	36.910000	0.412651
	36.915000	0.373187
	36.920000	0.182441
	36.925000	0.228483
	36.930000	0.406074
	36.935000	0.363321
	36.940000	0.179152
	36.945000	0.221905
	36.950000	0.402785
	36.955000	0.356743
	36.960000	0.179152
	36.965000	0.212039
	36.970000	0.399496
	36.975000	0.353454
	36.980000	0.169286
	36.985000	0.212039
	36.990000	0.399496
	36.995000	0.350166
	37.000000	0.172575
	37.005000	0.212039
	37.010000	0.399496
	37.015000	0.353454
	37.020000	0.172575
	37.025000	0.212039
	37.030000	0.396208
	37.035000	0.350166
	37.040000	0.165997
	37.045000	0.215328
	37.050000	0.396208
	37.055000	0.350166
	37.060000	0.169286
	37.065000	0.215328
	37.070000	0.396208
	37.075000	0.353454
	37.080000	0.172575
	37.085000	0.218617
	37.090000	0.399496
	37.095000	0.356743
	37.100000	0.169286
	37.105000	0.221905
	37.110000	0.396208
	37.115000	0.356743
	37.120000	0.169286
	37.125000	0.221905
	37.130000	0.402785
	37.135000	0.350166
	37.140000	0.165997
	37.145000	0.218617
	37.150000	0.399496
	37.155000	0.353454
	37.160000	0.179152
	37.165000	0.221905
	37.170000	0.402785
	37.175000	0.353454
	37.180000	0.172575
	37.185000	0.221905
	37.190000	0.406074
	37.195000	0.353454
	37.200000	0.172575
	37.205000	0.225194
	37.210000	0.406074
	37.215000	0.356743
	37.220000	0.169286
	37.225000	0.225194
	37.230000	0.402785
	37.235000	0.356743
	37.240000	0.175863
	37.245000	0.228483
	37.250000	0.406074
	37.255000	0.350166
	37.260000	0.172575
	37.265000	0.228483
	37.270000	0.409363
	37.275000	0.350166
	37.280000	0.169286
	37.285000	0.231772
	37.290000	0.409363
	37.295000	0.353454
	37.300000	0.169286
	37.305000	0.231772
	37.310000	0.409363
	37.315000	0.350166
	37.320000	0.169286
	37.325000	0.228483
	37.330000	0.406074
	37.335000	0.346877
	37.340000	0.169286
	37.345000	0.228483
	37.350000	0.409363
	37.355000	0.350166
	37.360000	0.172575
	37.365000	0.231772
	37.370000	0.406074
	37.375000	0.350166
	37.380000	0.175863
	37.385000	0.231772
	37.390000	0.412651
	37.395000	0.350166
	37.400000	0.172575
	37.405000	0.228483
	37.410000	0.406074
	37.415000	0.346877
	37.420000	0.172575
	37.425000	0.235060
	37.430000	0.409363
	37.435000	0.346877
	37.440000	0.169286
	37.445000	0.228483
	37.450000	0.409363
	37.455000	0.346877
	37.460000	0.169286
	37.465000	0.235060
	37.470000	0.409363
	37.475000	0.350166
	37.480000	0.172575
	37.485000	0.235060
	37.490000	0.412651
	37.495000	0.343588
	37.500000	0.169286
	37.505000	0.235060
	37.510000	0.415940
	37.515000	0.346877
	37.520000	0.172575
	37.525000	0.241638
	37.530000	0.415940
	37.535000	0.350166
	37.540000	0.169286
	37.545000	0.238349
	37.550000	0.415940
	37.555000	0.350166
	37.560000	0.175863
	37.565000	0.241638
	37.570000	0.412651
	37.575000	0.353454
	37.580000	0.175863
	37.585000	0.248215
	37.590000	0.415940
	37.595000	0.353454
	37.600000	0.175863
	37.605000	0.241638
	37.610000	0.419229
	37.615000	0.346877
	37.620000	0.172575
	37.625000	0.238349
	37.630000	0.415940
	37.635000	0.346877
	37.640000	0.172575
	37.645000	0.238349
	37.650000	0.412651
	37.655000	0.346877
	37.660000	0.172575
	37.665000	0.244927
	37.670000	0.415940
	37.675000	0.343588
	37.680000	0.169286
	37.685000	0.241638
	37.690000	0.415940
	37.695000	0.340299
	37.700000	0.169286
	37.705000	0.241638
	37.710000	0.409363
	37.715000	0.340299
	37.720000	0.162708
	37.725000	0.238349
	37.730000	0.409363
	37.735000	0.337011
	37.740000	0.162708
	37.745000	0.238349
	37.750000	0.406074
	37.755000	0.337011
	37.760000	0.159420
	37.765000	0.231772
	37.770000	0.406074
	37.775000	0.330433
	37.780000	0.162708
	37.785000	0.235060
	37.790000	0.402785
	37.795000	0.333722
	37.800000	0.152842
	37.805000	0.231772
	37.810000	0.402785
	37.815000	0.333722
	37.820000	0.159420
	37.825000	0.228483
	37.830000	0.399496
	37.835000	0.327145
	37.840000	0.156131
	37.845000	0.235060
	37.850000	0.402785
	37.855000	0.323856
	37.860000	0.156131
	37.865000	0.235060
	37.870000	0.399496
	37.875000	0.327145
	37.880000	0.152842
	37.885000	0.231772
	37.890000	0.402785
	37.895000	0.323856
	37.900000	0.152842
	37.905000	0.228483
	37.910000	0.399496
	37.915000	0.317278
	37.920000	0.152842
	37.925000	0.235060
	37.930000	0.392919
	37.935000	0.317278
	37.940000	0.146265
	37.945000	0.228483
	37.950000	0.396208
	37.955000	0.313990
	37.960000	0.146265
	37.965000	0.225194
	37.970000	0.396208
	37.975000	0.313990
	37.980000	0.146265
	37.985000	0.228483
	37.990000	0.399496
	37.995000	0.313990
	38.000000	0.146265
	38.005000	0.228483
	38.010000	0.396208
	38.015000	0.307412
	38.020000	0.149554
	38.025000	0.231772
	38.030000	0.392919
	38.035000	0.313990
	38.040000	0.146265
	38.045000	0.231772
	38.050000	0.399496
	38.055000	0.313990
	38.060000	0.146265
	38.065000	0.235060
	38.070000	0.399496
	38.075000	0.313990
	38.080000	0.149554
	38.085000	0.235060
	38.090000	0.402785
	38.095000	0.313990
	38.100000	0.156131
	38.105000	0.235060
	38.110000	0.399496
	38.115000	0.313990
	38.120000	0.149554
	38.125000	0.235060
	38.130000	0.399496
	38.135000	0.313990
	38.140000	0.146265
	38.145000	0.238349
	38.150000	0.399496
	38.155000	0.313990
	38.160000	0.149554
	38.165000	0.238349
	38.170000	0.399496
	38.175000	0.317278
	38.180000	0.152842
	38.185000	0.238349
	38.190000	0.399496
	38.195000	0.317278
	38.200000	0.149554
	38.205000	0.238349
	38.210000	0.402785
	38.215000	0.313990
	38.220000	0.146265
	38.225000	0.241638
	38.230000	0.406074
	38.235000	0.310701
	38.240000	0.149554
	38.245000	0.241638
	38.250000	0.406074
	38.255000	0.317278
	38.260000	0.149554
	38.265000	0.238349
	38.270000	0.402785
	38.275000	0.313990
	38.280000	0.149554
	38.285000	0.244927
	38.290000	0.406074
	38.295000	0.313990
	38.300000	0.156131
	38.305000	0.244927
	38.310000	0.409363
	38.315000	0.313990
	38.320000	0.152842
	38.325000	0.251504
	38.330000	0.409363
	38.335000	0.313990
	38.340000	0.149554
	38.345000	0.251504
	38.350000	0.406074
	38.355000	0.313990
	38.360000	0.152842
	38.365000	0.251504
	38.370000	0.409363
	38.375000	0.313990
	38.380000	0.149554
	38.385000	0.251504
	38.390000	0.409363
	38.395000	0.310701
	38.400000	0.152842
	38.405000	0.251504
	38.410000	0.406074
	38.415000	0.310701
	38.420000	0.152842
	38.425000	0.258081
	38.430000	0.409363
	38.435000	0.313990
	38.440000	0.156131
	38.445000	0.251504
	38.450000	0.415940
	38.455000	0.313990
	38.460000	0.156131
	38.465000	0.254793
	38.470000	0.406074
	38.475000	0.310701
	38.480000	0.156131
	38.485000	0.254793
	38.490000	0.412651
	38.495000	0.317278
	38.500000	0.152842
	38.505000	0.254793
	38.510000	0.409363
	38.515000	0.310701
	38.520000	0.152842
	38.525000	0.254793
	38.530000	0.412651
	38.535000	0.307412
	38.540000	0.156131
	38.545000	0.258081
	38.550000	0.412651
	38.555000	0.310701
	38.560000	0.152842
	38.565000	0.254793
	38.570000	0.412651
	38.575000	0.313990
	38.580000	0.156131
	38.585000	0.258081
	38.590000	0.412651
	38.595000	0.310701
	38.600000	0.156131
	38.605000	0.261370
	38.610000	0.412651
	38.615000	0.307412
	38.620000	0.152842
	38.625000	0.258081
	38.630000	0.412651
	38.635000	0.307412
	38.640000	0.152842
	38.645000	0.261370
	38.650000	0.415940
	38.655000	0.307412
	38.660000	0.156131
	38.665000	0.258081
	38.670000	0.415940
	38.675000	0.307412
	38.680000	0.152842
	38.685000	0.258081
	38.690000	0.412651
	38.695000	0.307412
	38.700000	0.159420
	38.705000	0.261370
	38.710000	0.415940
	38.715000	0.307412
	38.720000	0.152842
	38.725000	0.264659
	38.730000	0.415940
	38.735000	0.307412
	38.740000	0.156131
	38.745000	0.271236
	38.750000	0.419229
	38.755000	0.307412
	38.760000	0.159420
	38.765000	0.271236
	38.770000	0.415940
	38.775000	0.307412
	38.780000	0.156131
	38.785000	0.264659
	38.790000	0.415940
	38.795000	0.304124
	38.800000	0.159420
	38.805000	0.264659
	38.810000	0.419229
	38.815000	0.307412
	38.820000	0.159420
	38.825000	0.267948
	38.830000	0.419229
	38.835000	0.300835
	38.840000	0.156131
	38.845000	0.267948
	38.850000	0.422518
	38.855000	0.304124
	38.860000	0.152842
	38.865000	0.271236
	38.870000	0.412651
	38.875000	0.304124
	38.880000	0.152842
	38.885000	0.267948
	38.890000	0.409363
	38.895000	0.304124
	38.900000	0.149554
	38.905000	0.264659
	38.910000	0.412651
	38.915000	0.300835
	38.920000	0.159420
	38.925000	0.264659
	38.930000	0.412651
	38.935000	0.294257
	38.940000	0.156131
	38.945000	0.267948
	38.950000	0.415940
	38.955000	0.300835
	38.960000	0.149554
	38.965000	0.271236
	38.970000	0.419229
	38.975000	0.300835
	38.980000	0.152842
	38.985000	0.274525
	38.990000	0.419229
	38.995000	0.304124
	39.000000	0.156131
	39.005000	0.274525
	39.010000	0.425806
	39.015000	0.304124
	39.020000	0.159420
	39.025000	0.287680
	39.030000	0.425806
	39.035000	0.310701
	39.040000	0.169286
	39.045000	0.284391
	39.050000	0.429095
	39.055000	0.310701
	39.060000	0.165997
	39.065000	0.284391
	39.070000	0.432384
	39.075000	0.310701
	39.080000	0.169286
	39.085000	0.287680
	39.090000	0.435672
	39.095000	0.313990
	39.100000	0.165997
	39.105000	0.294257
	39.110000	0.432384
	39.115000	0.313990
	39.120000	0.172575
	39.125000	0.294257
	39.130000	0.435672
	39.135000	0.317278
	39.140000	0.172575
	39.145000	0.294257
	39.150000	0.432384
	39.155000	0.310701
	39.160000	0.169286
	39.165000	0.294257
	39.170000	0.432384
	39.175000	0.307412
	39.180000	0.169286
	39.185000	0.287680
	39.190000	0.429095
	39.195000	0.304124
	39.200000	0.159420
	39.205000	0.284391
	39.210000	0.422518
	39.215000	0.300835
	39.220000	0.159420
	39.225000	0.277814
	39.230000	0.425806
	39.235000	0.294257
	39.240000	0.156131
	39.245000	0.277814
	39.250000	0.415940
	39.255000	0.294257
	39.260000	0.152842
	39.265000	0.274525
	39.270000	0.415940
	39.275000	0.287680
	39.280000	0.149554
	39.285000	0.277814
	39.290000	0.415940
	39.295000	0.287680
	39.300000	0.149554
	39.305000	0.277814
	39.310000	0.419229
	39.315000	0.287680
	39.320000	0.156131
	39.325000	0.277814
	39.330000	0.415940
	39.335000	0.294257
	39.340000	0.152842
	39.345000	0.281102
	39.350000	0.419229
	39.355000	0.284391
	39.360000	0.152842
	39.365000	0.281102
	39.370000	0.419229
	39.375000	0.287680
	39.380000	0.152842
	39.385000	0.281102
	39.390000	0.415940
	39.395000	0.287680
	39.400000	0.152842
	39.405000	0.284391
	39.410000	0.419229
	39.415000	0.284391
	39.420000	0.149554
	39.425000	0.281102
	39.430000	0.419229
	39.435000	0.290969
	39.440000	0.152842
	39.445000	0.287680
	39.450000	0.415940
	39.455000	0.290969
	39.460000	0.156131
	39.465000	0.284391
	39.470000	0.419229
	39.475000	0.287680
	39.480000	0.149554
	39.485000	0.284391
	39.490000	0.415940
	39.495000	0.284391
	39.500000	0.149554
	39.505000	0.284391
	39.510000	0.419229
	39.515000	0.290969
	39.520000	0.152842
	39.525000	0.287680
	39.530000	0.415940
	39.535000	0.287680
	39.540000	0.142976
	39.545000	0.287680
	39.550000	0.415940
	39.555000	0.284391
	39.560000	0.152842
	39.565000	0.277814
	39.570000	0.415940
	39.575000	0.277814
	39.580000	0.152842
	39.585000	0.284391
	39.590000	0.412651
	39.595000	0.277814
	39.600000	0.146265
	39.605000	0.287680
	39.610000	0.412651
	39.615000	0.281102
	39.620000	0.146265
	39.625000	0.287680
	39.630000	0.409363
	39.635000	0.277814
	39.640000	0.146265
	39.645000	0.284391
	39.650000	0.412651
	39.655000	0.277814
	39.660000	0.149554
	39.665000	0.287680
	39.670000	0.409363
	39.675000	0.274525
	39.680000	0.146265
	39.685000	0.287680
	39.690000	0.415940
	39.695000	0.274525
	39.700000	0.149554
	39.705000	0.290969
	39.710000	0.412651
	39.715000	0.274525
	39.720000	0.149554
	39.725000	0.290969
	39.730000	0.419229
	39.735000	0.277814
	39.740000	0.149554
	39.745000	0.294257
	39.750000	0.412651
	39.755000	0.277814
	39.760000	0.152842
	39.765000	0.287680
	39.770000	0.419229
	39.775000	0.277814
	39.780000	0.156131
	39.785000	0.297546
	39.790000	0.419229
	39.795000	0.277814
	39.800000	0.152842
	39.805000	0.294257
	39.810000	0.419229
	39.815000	0.274525
	39.820000	0.149554
	39.825000	0.297546
	39.830000	0.419229
	39.835000	0.274525
	39.840000	0.156131
	39.845000	0.294257
	39.850000	0.412651
	39.855000	0.271236
	39.860000	0.146265
	39.865000	0.290969
	39.870000	0.412651
	39.875000	0.264659
	39.880000	0.142976
	39.885000	0.284391
	39.890000	0.406074
	39.895000	0.261370
	39.900000	0.136399
	39.905000	0.274525
	39.910000	0.396208
	39.915000	0.254793
	39.920000	0.139687
	39.925000	0.274525
	39.930000	0.392919
	39.935000	0.241638
	39.940000	0.126533
	39.945000	0.271236
	39.950000	0.389630
	39.955000	0.241638
	39.960000	0.123244
	39.965000	0.264659
	39.970000	0.386342
	39.975000	0.238349
	39.980000	0.119955
	39.985000	0.264659
	39.990000	0.383053
	39.995000	0.238349
	40.000000	0.123244
	40.005000	0.264659
	40.010000	0.383053
	40.015000	0.235060
	40.020000	0.119955
	40.025000	0.264659
	40.030000	0.383053
	40.035000	0.235060
	40.040000	0.119955
	40.045000	0.271236
	40.050000	0.386342
	40.055000	0.235060
	40.060000	0.116666
	40.065000	0.267948
	40.070000	0.386342
	40.075000	0.235060
	40.080000	0.129821
	40.085000	0.271236
	40.090000	0.389630
	40.095000	0.241638
	40.100000	0.129821
	40.105000	0.277814
	40.110000	0.392919
	40.115000	0.244927
	40.120000	0.139687
	40.125000	0.287680
	40.130000	0.396208
	40.135000	0.254793
	40.140000	0.142976
	40.145000	0.297546
	40.150000	0.415940
	40.155000	0.267948
	40.160000	0.156131
	40.165000	0.307412
	40.170000	0.415940
	40.175000	0.267948
	40.180000	0.156131
	40.185000	0.300835
	40.190000	0.409363
	40.195000	0.254793
	40.200000	0.139687
	40.205000	0.294257
	40.210000	0.406074
	40.215000	0.258081
	40.220000	0.149554
	40.225000	0.300835
	40.230000	0.402785
	40.235000	0.258081
	40.240000	0.149554
	40.245000	0.300835
	40.250000	0.406074
	40.255000	0.261370
	40.260000	0.152842
	40.265000	0.300835
	40.270000	0.412651
	40.275000	0.258081
	40.280000	0.149554
	40.285000	0.304124
	40.290000	0.412651
	40.295000	0.258081
	40.300000	0.156131
	40.305000	0.307412
	40.310000	0.412651
	40.315000	0.261370
	40.320000	0.152842
	40.325000	0.300835
	40.330000	0.406074
	40.335000	0.241638
	40.340000	0.126533
	40.345000	0.267948
	40.350000	0.360032
	40.355000	0.189018
	40.360000	0.077202
	40.365000	0.215328
	40.370000	0.300835
	40.375000	0.133110
	40.380000	0.018005
	40.385000	0.165997
	40.390000	0.264659
	40.395000	0.110089
	40.400000	0.004850
	40.405000	0.159420
	40.410000	0.264659
	40.415000	0.106800
	40.420000	0.001561
	40.425000	0.156131
	40.430000	0.261370
	40.435000	0.106800
	40.440000	0.004850
	40.445000	0.156131
	40.450000	0.261370
	40.455000	0.103511
	40.460000	0.004850
	40.465000	0.159420
	40.470000	0.258081
	40.475000	0.103511
	40.480000	0.008138
	40.485000	0.162708
	40.490000	0.264659
	40.495000	0.110089
	40.500000	0.011427
	40.505000	0.169286
	40.510000	0.271236
	40.515000	0.119955
	40.520000	0.021293
	40.525000	0.182441
	40.530000	0.277814
	40.535000	0.126533
	40.540000	0.031160
	40.545000	0.195596
	40.550000	0.294257
	40.555000	0.136399
	40.560000	0.044314
	40.565000	0.198884
	40.570000	0.297546
	40.575000	0.142976
	40.580000	0.047603
	40.585000	0.198884
	40.590000	0.300835
	40.595000	0.142976
	40.600000	0.050892
	40.605000	0.208751
	40.610000	0.304124
	40.615000	0.149554
	40.620000	0.057469
	40.625000	0.212039
	40.630000	0.304124
	40.635000	0.149554
	40.640000	0.047603
	40.645000	0.205462
	40.650000	0.297546
	40.655000	0.136399
	40.660000	0.044314
	40.665000	0.202173
	40.670000	0.297546
	40.675000	0.133110
	40.680000	0.044314
	40.685000	0.195596
	40.690000	0.290969
	40.695000	0.129821
	40.700000	0.037737
	40.705000	0.195596
	40.710000	0.287680
	40.715000	0.126533
	40.720000	0.034448
	40.725000	0.198884
	40.730000	0.281102
	40.735000	0.123244
	40.740000	0.034448
	40.745000	0.195596
	40.750000	0.287680
	40.755000	0.126533
	40.760000	0.034448
	40.765000	0.195596
	40.770000	0.287680
	40.775000	0.119955
	40.780000	0.031160
	40.785000	0.189018
	40.790000	0.277814
	40.795000	0.113378
	40.800000	0.027871
	40.805000	0.192307
	40.810000	0.284391
	40.815000	0.116666
	40.820000	0.031160
	40.825000	0.192307
	40.830000	0.287680
	40.835000	0.123244
	40.840000	0.041026
	40.845000	0.205462
	40.850000	0.290969
	40.855000	0.129821
	40.860000	0.050892
	40.865000	0.205462
	40.870000	0.294257
	40.875000	0.133110
	40.880000	0.050892
	40.885000	0.218617
	40.890000	0.307412
	40.895000	0.152842
	40.900000	0.067335
	40.905000	0.235060
	40.910000	0.323856
	40.915000	0.169286
	40.920000	0.090357
	40.925000	0.254793
	40.930000	0.353454
	40.935000	0.195596
	40.940000	0.116666
	40.945000	0.290969
	40.950000	0.386342
	40.955000	0.238349
	40.960000	0.152842
	40.965000	0.320567
	40.970000	0.399496
	40.975000	0.235060
	40.980000	0.142976
	40.985000	0.304124
	40.990000	0.379764
	40.995000	0.208751
	41.000000	0.123244
	41.005000	0.287680
	41.010000	0.363321
	41.015000	0.189018
	41.020000	0.106800
	41.025000	0.271236
	41.030000	0.346877
	41.035000	0.172575
	41.040000	0.096934
	41.045000	0.261370
	41.050000	0.333722
	41.055000	0.169286
	41.060000	0.093645
	41.065000	0.258081
	41.070000	0.333722
	41.075000	0.169286
	41.080000	0.087068
	41.085000	0.251504
	41.090000	0.330433
	41.095000	0.169286
	41.100000	0.087068
	41.105000	0.254793
	41.110000	0.330433
	41.115000	0.162708
	41.120000	0.090357
	41.125000	0.251504
	41.130000	0.327145
	41.135000	0.162708
	41.140000	0.083779
	41.145000	0.251504
	41.150000	0.323856
	41.155000	0.156131
	41.160000	0.083779
	41.165000	0.248215
	41.170000	0.323856
	41.175000	0.159420
	41.180000	0.087068
	41.185000	0.251504
	41.190000	0.327145
	41.195000	0.159420
	41.200000	0.083779
	41.205000	0.254793
	41.210000	0.327145
	41.215000	0.159420
	41.220000	0.090357
	41.225000	0.261370
	41.230000	0.333722
	41.235000	0.165997
	41.240000	0.093645
	41.245000	0.267948
	41.250000	0.330433
	41.255000	0.165997
	41.260000	0.093645
	41.265000	0.267948
	41.270000	0.340299
	41.275000	0.165997
	41.280000	0.096934
	41.285000	0.264659
	41.290000	0.337011
	41.295000	0.162708
	41.300000	0.093645
	41.305000	0.264659
	41.310000	0.340299
	41.315000	0.162708
	41.320000	0.093645
	41.325000	0.267948
	41.330000	0.337011
	41.335000	0.165997
	41.340000	0.096934
	41.345000	0.274525
	41.350000	0.340299
	41.355000	0.172575
	41.360000	0.106800
	41.365000	0.274525
	41.370000	0.337011
	41.375000	0.165997
	41.380000	0.103511
	41.385000	0.274525
	41.390000	0.340299
	41.395000	0.169286
	41.400000	0.106800
	41.405000	0.274525
	41.410000	0.343588
	41.415000	0.169286
	41.420000	0.110089
	41.425000	0.281102
	41.430000	0.343588
	41.435000	0.169286
	41.440000	0.103511
	41.445000	0.281102
	41.450000	0.346877
	41.455000	0.172575
	41.460000	0.106800
	41.465000	0.287680
	41.470000	0.350166
	41.475000	0.175863
	41.480000	0.113378
	41.485000	0.290969
	41.490000	0.346877
	41.495000	0.175863
	41.500000	0.113378
	41.505000	0.290969
	41.510000	0.353454
	41.515000	0.179152
	41.520000	0.119955
	41.525000	0.297546
	41.530000	0.356743
	41.535000	0.182441
	41.540000	0.119955
	41.545000	0.300835
	41.550000	0.356743
	41.555000	0.182441
	41.560000	0.126533
	41.565000	0.300835
	41.570000	0.356743
	41.575000	0.185730
	41.580000	0.129821
	41.585000	0.307412
	41.590000	0.363321
	41.595000	0.192307
	41.600000	0.129821
	41.605000	0.307412
	41.610000	0.363321
	41.615000	0.185730
	41.620000	0.133110
	41.625000	0.310701
	41.630000	0.363321
	41.635000	0.192307
	41.640000	0.133110
	41.645000	0.310701
	41.650000	0.360032
	41.655000	0.189018
	41.660000	0.133110
	41.665000	0.313990
	41.670000	0.366609
	41.675000	0.189018
	41.680000	0.133110
	41.685000	0.310701
	41.690000	0.366609
	41.695000	0.189018
	41.700000	0.136399
	41.705000	0.310701
	41.710000	0.366609
	41.715000	0.189018
	41.720000	0.133110
	41.725000	0.310701
	41.730000	0.366609
	41.735000	0.189018
	41.740000	0.136399
	41.745000	0.317278
	41.750000	0.363321
	41.755000	0.182441
	41.760000	0.136399
	41.765000	0.310701
	41.770000	0.363321
	41.775000	0.185730
	41.780000	0.136399
	41.785000	0.313990
	41.790000	0.363321
	41.795000	0.182441
	41.800000	0.133110
	41.805000	0.313990
	41.810000	0.366609
	41.815000	0.182441
	41.820000	0.142976
	41.825000	0.313990
	41.830000	0.366609
	41.835000	0.182441
	41.840000	0.139687
	41.845000	0.317278
	41.850000	0.360032
	41.855000	0.189018
	41.860000	0.139687
	41.865000	0.317278
	41.870000	0.363321
	41.875000	0.185730
	41.880000	0.139687
	41.885000	0.317278
	41.890000	0.366609
	41.895000	0.182441
	41.900000	0.139687
	41.905000	0.317278
	41.910000	0.363321
	41.915000	0.185730
	41.920000	0.139687
	41.925000	0.323856
	41.930000	0.363321
	41.935000	0.185730
	41.940000	0.142976
	41.945000	0.327145
	41.950000	0.366609
	41.955000	0.185730
	41.960000	0.139687
	41.965000	0.323856
	41.970000	0.366609
	41.975000	0.189018
	41.980000	0.142976
	41.985000	0.327145
	41.990000	0.369898
	41.995000	0.185730
	42.000000	0.142976
	42.005000	0.330433
	42.010000	0.366609
	42.015000	0.185730
	42.020000	0.146265
	42.025000	0.330433
	42.030000	0.373187
	42.035000	0.189018
	42.040000	0.149554
	42.045000	0.337011
	42.050000	0.373187
	42.055000	0.195596
	42.060000	0.152842
	42.065000	0.333722
	42.070000	0.373187
	42.075000	0.192307
	42.080000	0.152842
	42.085000	0.337011
	42.090000	0.373187
	42.095000	0.192307
	42.100000	0.156131
	42.105000	0.337011
	42.110000	0.369898
	42.115000	0.189018
	42.120000	0.156131
	42.125000	0.333722
	42.130000	0.366609
	42.135000	0.189018
	42.140000	0.156131
	42.145000	0.340299
	42.150000	0.366609
	42.155000	0.189018
	42.160000	0.152842
	42.165000	0.337011
	42.170000	0.363321
	42.175000	0.185730
	42.180000	0.156131
	42.185000	0.337011
	42.190000	0.373187
	42.195000	0.185730
	42.200000	0.152842
	42.205000	0.337011
	42.210000	0.373187
	42.215000	0.182441
	42.220000	0.152842
	42.225000	0.337011
	42.230000	0.366609
	42.235000	0.182441
	42.240000	0.156131
	42.245000	0.333722
	42.250000	0.363321
	42.255000	0.182441
	42.260000	0.152842
	42.265000	0.330433
	42.270000	0.363321
	42.275000	0.185730
	42.280000	0.146265
	42.285000	0.333722
	42.290000	0.360032
	42.295000	0.175863
	42.300000	0.149554
	42.305000	0.330433
	42.310000	0.360032
	42.315000	0.175863
	42.320000	0.156131
	42.325000	0.337011
	42.330000	0.363321
	42.335000	0.179152
	42.340000	0.156131
	42.345000	0.330433
	42.350000	0.356743
	42.355000	0.179152
	42.360000	0.156131
	42.365000	0.340299
	42.370000	0.363321
	42.375000	0.179152
	42.380000	0.149554
	42.385000	0.340299
	42.390000	0.360032
	42.395000	0.175863
	42.400000	0.156131
	42.405000	0.337011
	42.410000	0.363321
	42.415000	0.179152
	42.420000	0.152842
	42.425000	0.330433
	42.430000	0.356743
	42.435000	0.172575
	42.440000	0.152842
	42.445000	0.340299
	42.450000	0.360032
	42.455000	0.175863
	42.460000	0.152842
	42.465000	0.340299
	42.470000	0.363321
	42.475000	0.175863
	42.480000	0.152842
	42.485000	0.343588
	42.490000	0.360032
	42.495000	0.179152
	42.500000	0.156131
	42.505000	0.340299
	42.510000	0.360032
	42.515000	0.175863
	42.520000	0.152842
	42.525000	0.340299
	42.530000	0.363321
	42.535000	0.175863
	42.540000	0.156131
	42.545000	0.343588
	42.550000	0.366609
	42.555000	0.179152
	42.560000	0.162708
	42.565000	0.340299
	42.570000	0.366609
	42.575000	0.175863
	42.580000	0.159420
	42.585000	0.346877
	42.590000	0.366609
	42.595000	0.182441
	42.600000	0.159420
	42.605000	0.346877
	42.610000	0.363321
	42.615000	0.175863
	42.620000	0.159420
	42.625000	0.343588
	42.630000	0.363321
	42.635000	0.175863
	42.640000	0.162708
	42.645000	0.346877
	42.650000	0.363321
	42.655000	0.179152
	42.660000	0.165997
	42.665000	0.350166
	42.670000	0.356743
	42.675000	0.175863
	42.680000	0.159420
	42.685000	0.350166
	42.690000	0.366609
	42.695000	0.179152
	42.700000	0.165997
	42.705000	0.350166
	42.710000	0.363321
	42.715000	0.182441
	42.720000	0.172575
	42.725000	0.356743
	42.730000	0.366609
	42.735000	0.182441
	42.740000	0.175863
	42.745000	0.356743
	42.750000	0.369898
	42.755000	0.185730
	42.760000	0.175863
	42.765000	0.360032
	42.770000	0.373187
	42.775000	0.189018
	42.780000	0.179152
	42.785000	0.366609
	42.790000	0.379764
	42.795000	0.192307
	42.800000	0.175863
	42.805000	0.363321
	42.810000	0.373187
	42.815000	0.192307
	42.820000	0.182441
	42.825000	0.366609
	42.830000	0.379764
	42.835000	0.195596
	42.840000	0.179152
	42.845000	0.369898
	42.850000	0.379764
	42.855000	0.195596
	42.860000	0.189018
	42.865000	0.369898
	42.870000	0.379764
	42.875000	0.192307
	42.880000	0.192307
	42.885000	0.369898
	42.890000	0.376475
	42.895000	0.192307
	42.900000	0.185730
	42.905000	0.376475
	42.910000	0.373187
	42.915000	0.189018
	42.920000	0.185730
	42.925000	0.369898
	42.930000	0.376475
	42.935000	0.192307
	42.940000	0.185730
	42.945000	0.369898
	42.950000	0.376475
	42.955000	0.185730
	42.960000	0.185730
	42.965000	0.369898
	42.970000	0.369898
	42.975000	0.185730
	42.980000	0.182441
	42.985000	0.366609
	42.990000	0.366609
	42.995000	0.182441
	43.000000	0.179152
	43.005000	0.363321
	43.010000	0.363321
	43.015000	0.179152
	43.020000	0.175863
	43.025000	0.353454
	43.030000	0.356743
	43.035000	0.172575
	43.040000	0.172575
	43.045000	0.353454
	43.050000	0.356743
	43.055000	0.172575
	43.060000	0.172575
	43.065000	0.353454
	43.070000	0.353454
	43.075000	0.169286
	43.080000	0.172575
	43.085000	0.356743
	43.090000	0.356743
	43.095000	0.172575
	43.100000	0.169286
	43.105000	0.363321
	43.110000	0.360032
	43.115000	0.175863
	43.120000	0.175863
	43.125000	0.363321
	43.130000	0.363321
	43.135000	0.175863
	43.140000	0.175863
	43.145000	0.363321
	43.150000	0.363321
	43.155000	0.175863
	43.160000	0.182441
	43.165000	0.366609
	43.170000	0.363321
	43.175000	0.182441
	43.180000	0.182441
	43.185000	0.366609
	43.190000	0.360032
	43.195000	0.179152
	43.200000	0.182441
	43.205000	0.366609
	43.210000	0.356743
	43.215000	0.175863
	43.220000	0.182441
	43.225000	0.369898
	43.230000	0.356743
	43.235000	0.172575
	43.240000	0.185730
	43.245000	0.369898
	43.250000	0.360032
	43.255000	0.172575
	43.260000	0.182441
	43.265000	0.369898
	43.270000	0.356743
	43.275000	0.169286
	43.280000	0.179152
	43.285000	0.366609
	43.290000	0.360032
	43.295000	0.175863
	43.300000	0.185730
	43.305000	0.363321
	43.310000	0.350166
	43.315000	0.165997
	43.320000	0.179152
	43.325000	0.366609
	43.330000	0.353454
	43.335000	0.169286
	43.340000	0.182441
	43.345000	0.369898
	43.350000	0.350166
	43.355000	0.169286
