2024/7/10 	 19:12:03 
 This file comes from Vt only measurement 	 1.000000E-1 
 Voltage Sensitivity 	 0.000000E+0 
 Sampling rate 	 200 
 Number of samples per channel 	 -1 
 No filter from Labview 	 	 	 
 	 
 ***End_of_Header*** 
 	 Time 	  Voltage 	 Filtered Voltage 	 
	0.000000	-1.827394
	0.005000	-1.746810
	0.010000	-1.798384
	0.015000	-1.869297
	0.020000	-1.824170
	0.025000	-1.746810
	0.030000	-1.788713
	0.035000	-1.862851
	0.040000	-1.804830
	0.045000	-1.730693
	0.050000	-1.779043
	0.055000	-1.853181
	0.060000	-1.808054
	0.065000	-1.724246
	0.070000	-1.775820
	0.075000	-1.853181
	0.080000	-1.798384
	0.085000	-1.721023
	0.090000	-1.769373
	0.095000	-1.846734
	0.100000	-1.788713
	0.105000	-1.714576
	0.110000	-1.759703
	0.115000	-1.837064
	0.120000	-1.782267
	0.125000	-1.701683
	0.130000	-1.750033
	0.135000	-1.830617
	0.140000	-1.782267
	0.145000	-1.695236
	0.150000	-1.743586
	0.155000	-1.820947
	0.160000	-1.772597
	0.165000	-1.695236
	0.170000	-1.737140
	0.175000	-1.811277
	0.180000	-1.759703
	0.185000	-1.685566
	0.190000	-1.730693
	0.195000	-1.808054
	0.200000	-1.762927
	0.205000	-1.679119
	0.210000	-1.724246
	0.215000	-1.804830
	0.220000	-1.746810
	0.225000	-1.666226
	0.230000	-1.717800
	0.235000	-1.798384
	0.240000	-1.746810
	0.245000	-1.669449
	0.250000	-1.717800
	0.255000	-1.788713
	0.260000	-1.737140
	0.265000	-1.666226
	0.270000	-1.714576
	0.275000	-1.785490
	0.280000	-1.733916
	0.285000	-1.656556
	0.290000	-1.701683
	0.295000	-1.782267
	0.300000	-1.724246
	0.305000	-1.643662
	0.310000	-1.704906
	0.315000	-1.772597
	0.320000	-1.717800
	0.325000	-1.640439
	0.330000	-1.695236
	0.335000	-1.762927
	0.340000	-1.717800
	0.345000	-1.633992
	0.350000	-1.685566
	0.355000	-1.766150
	0.360000	-1.714576
	0.365000	-1.630769
	0.370000	-1.675896
	0.375000	-1.756480
	0.380000	-1.701683
	0.385000	-1.630769
	0.390000	-1.675896
	0.395000	-1.750033
	0.400000	-1.695236
	0.405000	-1.617875
	0.410000	-1.663002
	0.415000	-1.743586
	0.420000	-1.688789
	0.425000	-1.621099
	0.430000	-1.666226
	0.435000	-1.743586
	0.440000	-1.695236
	0.445000	-1.614652
	0.450000	-1.666226
	0.455000	-1.733916
	0.460000	-1.682343
	0.465000	-1.604982
	0.470000	-1.656556
	0.475000	-1.730693
	0.480000	-1.682343
	0.485000	-1.604982
	0.490000	-1.656556
	0.495000	-1.727470
	0.500000	-1.679119
	0.505000	-1.604982
	0.510000	-1.656556
	0.515000	-1.727470
	0.520000	-1.669449
	0.525000	-1.592089
	0.530000	-1.643662
	0.535000	-1.714576
	0.540000	-1.663002
	0.545000	-1.582418
	0.550000	-1.630769
	0.555000	-1.708129
	0.560000	-1.653332
	0.565000	-1.575972
	0.570000	-1.633992
	0.575000	-1.701683
	0.580000	-1.646886
	0.585000	-1.572748
	0.590000	-1.617875
	0.595000	-1.695236
	0.600000	-1.630769
	0.605000	-1.550185
	0.610000	-1.601759
	0.615000	-1.679119
	0.620000	-1.614652
	0.625000	-1.534068
	0.630000	-1.588865
	0.635000	-1.656556
	0.640000	-1.604982
	0.645000	-1.530845
	0.650000	-1.575972
	0.655000	-1.653332
	0.660000	-1.598535
	0.665000	-1.524398
	0.670000	-1.572748
	0.675000	-1.640439
	0.680000	-1.588865
	0.685000	-1.505058
	0.690000	-1.563078
	0.695000	-1.630769
	0.700000	-1.588865
	0.705000	-1.508281
	0.710000	-1.559855
	0.715000	-1.633992
	0.720000	-1.582418
	0.725000	-1.505058
	0.730000	-1.556632
	0.735000	-1.624322
	0.740000	-1.575972
	0.745000	-1.498611
	0.750000	-1.563078
	0.755000	-1.630769
	0.760000	-1.566302
	0.765000	-1.501835
	0.770000	-1.546962
	0.775000	-1.624322
	0.780000	-1.575972
	0.785000	-1.498611
	0.790000	-1.540515
	0.795000	-1.624322
	0.800000	-1.566302
	0.805000	-1.495388
	0.810000	-1.550185
	0.815000	-1.617875
	0.820000	-1.566302
	0.825000	-1.492164
	0.830000	-1.546962
	0.835000	-1.621099
	0.840000	-1.559855
	0.845000	-1.492164
	0.850000	-1.546962
	0.855000	-1.624322
	0.860000	-1.569525
	0.865000	-1.495388
	0.870000	-1.546962
	0.875000	-1.624322
	0.880000	-1.569525
	0.885000	-1.495388
	0.890000	-1.553408
	0.895000	-1.630769
	0.900000	-1.575972
	0.905000	-1.492164
	0.910000	-1.556632
	0.915000	-1.621099
	0.920000	-1.579195
	0.925000	-1.498611
	0.930000	-1.550185
	0.935000	-1.630769
	0.940000	-1.579195
	0.945000	-1.498611
	0.950000	-1.556632
	0.955000	-1.627546
	0.960000	-1.579195
	0.965000	-1.505058
	0.970000	-1.553408
	0.975000	-1.643662
	0.980000	-1.585642
	0.985000	-1.508281
	0.990000	-1.563078
	0.995000	-1.637216
	1.000000	-1.585642
	1.005000	-1.514728
	1.010000	-1.572748
	1.015000	-1.646886
	1.020000	-1.585642
	1.025000	-1.514728
	1.030000	-1.575972
	1.035000	-1.646886
	1.040000	-1.595312
	1.045000	-1.524398
	1.050000	-1.575972
	1.055000	-1.650109
	1.060000	-1.595312
	1.065000	-1.527621
	1.070000	-1.579195
	1.075000	-1.659779
	1.080000	-1.604982
	1.085000	-1.534068
	1.090000	-1.592089
	1.095000	-1.666226
	1.100000	-1.614652
	1.105000	-1.540515
	1.110000	-1.598535
	1.115000	-1.675896
	1.120000	-1.608205
	1.125000	-1.543738
	1.130000	-1.604982
	1.135000	-1.682343
	1.140000	-1.617875
	1.145000	-1.550185
	1.150000	-1.598535
	1.155000	-1.675896
	1.160000	-1.621099
	1.165000	-1.553408
	1.170000	-1.608205
	1.175000	-1.682343
	1.180000	-1.627546
	1.185000	-1.546962
	1.190000	-1.604982
	1.195000	-1.682343
	1.200000	-1.624322
	1.205000	-1.543738
	1.210000	-1.601759
	1.215000	-1.672673
	1.220000	-1.614652
	1.225000	-1.537291
	1.230000	-1.585642
	1.235000	-1.663002
	1.240000	-1.598535
	1.245000	-1.524398
	1.250000	-1.569525
	1.255000	-1.643662
	1.260000	-1.579195
	1.265000	-1.505058
	1.270000	-1.556632
	1.275000	-1.630769
	1.280000	-1.572748
	1.285000	-1.495388
	1.290000	-1.540515
	1.295000	-1.614652
	1.300000	-1.553408
	1.305000	-1.482494
	1.310000	-1.540515
	1.315000	-1.608205
	1.320000	-1.550185
	1.325000	-1.472824
	1.330000	-1.527621
	1.335000	-1.598535
	1.340000	-1.530845
	1.345000	-1.466378
	1.350000	-1.517951
	1.355000	-1.588865
	1.360000	-1.534068
	1.365000	-1.453484
	1.370000	-1.514728
	1.375000	-1.579195
	1.380000	-1.527621
	1.385000	-1.447037
	1.390000	-1.501835
	1.395000	-1.579195
	1.400000	-1.517951
	1.405000	-1.447037
	1.410000	-1.501835
	1.415000	-1.572748
	1.420000	-1.527621
	1.425000	-1.447037
	1.430000	-1.501835
	1.435000	-1.575972
	1.440000	-1.521175
	1.445000	-1.450261
	1.450000	-1.501835
	1.455000	-1.575972
	1.460000	-1.517951
	1.465000	-1.450261
	1.470000	-1.501835
	1.475000	-1.579195
	1.480000	-1.524398
	1.485000	-1.450261
	1.490000	-1.514728
	1.495000	-1.582418
	1.500000	-1.517951
	1.505000	-1.456707
	1.510000	-1.508281
	1.515000	-1.579195
	1.520000	-1.521175
	1.525000	-1.453484
	1.530000	-1.505058
	1.535000	-1.566302
	1.540000	-1.498611
	1.545000	-1.405134
	1.550000	-1.434144
	1.555000	-1.482494
	1.560000	-1.392240
	1.565000	-1.279423
	1.570000	-1.301986
	1.575000	-1.356783
	1.580000	-1.260083
	1.585000	-1.176275
	1.590000	-1.205285
	1.595000	-1.263306
	1.600000	-1.192392
	1.605000	-1.108585
	1.610000	-1.156935
	1.615000	-1.214956
	1.620000	-1.153712
	1.625000	-1.082798
	1.630000	-1.134372
	1.635000	-1.195615
	1.640000	-1.140818
	1.645000	-1.063458
	1.650000	-1.118255
	1.655000	-1.179499
	1.660000	-1.121478
	1.665000	-1.050564
	1.670000	-1.095691
	1.675000	-1.166605
	1.680000	-1.111808
	1.685000	-1.031224
	1.690000	-1.086021
	1.695000	-1.150488
	1.700000	-1.089245
	1.705000	-1.024777
	1.710000	-1.079574
	1.715000	-1.131148
	1.720000	-1.086021
	1.725000	-1.011884
	1.730000	-1.060234
	1.735000	-1.131148
	1.740000	-1.079574
	1.745000	-1.005437
	1.750000	-1.063458
	1.755000	-1.124702
	1.760000	-1.079574
	1.765000	-0.998991
	1.770000	-1.057011
	1.775000	-1.131148
	1.780000	-1.073128
	1.785000	-1.002214
	1.790000	-1.063458
	1.795000	-1.121478
	1.800000	-1.066681
	1.805000	-1.008661
	1.810000	-1.063458
	1.815000	-1.127925
	1.820000	-1.076351
	1.825000	-1.008661
	1.830000	-1.066681
	1.835000	-1.140818
	1.840000	-1.089245
	1.845000	-1.024777
	1.850000	-1.069904
	1.855000	-1.144042
	1.860000	-1.092468
	1.865000	-1.031224
	1.870000	-1.089245
	1.875000	-1.153712
	1.880000	-1.095691
	1.885000	-1.037671
	1.890000	-1.086021
	1.895000	-1.153712
	1.900000	-1.102138
	1.905000	-1.034447
	1.910000	-1.098915
	1.915000	-1.156935
	1.920000	-1.102138
	1.925000	-1.044118
	1.930000	-1.095691
	1.935000	-1.163382
	1.940000	-1.111808
	1.945000	-1.050564
	1.950000	-1.098915
	1.955000	-1.166605
	1.960000	-1.118255
	1.965000	-1.053788
	1.970000	-1.102138
	1.975000	-1.169829
	1.980000	-1.118255
	1.985000	-1.053788
	1.990000	-1.102138
	1.995000	-1.173052
	2.000000	-1.118255
	2.005000	-1.060234
	2.010000	-1.111808
	2.015000	-1.173052
	2.020000	-1.124702
	2.025000	-1.057011
	2.030000	-1.108585
	2.035000	-1.179499
	2.040000	-1.121478
	2.045000	-1.057011
	2.050000	-1.111808
	2.055000	-1.173052
	2.060000	-1.121478
	2.065000	-1.063458
	2.070000	-1.111808
	2.075000	-1.176275
	2.080000	-1.127925
	2.085000	-1.066681
	2.090000	-1.124702
	2.095000	-1.195615
	2.100000	-1.147265
	2.105000	-1.089245
	2.110000	-1.147265
	2.115000	-1.224626
	2.120000	-1.179499
	2.125000	-1.134372
	2.130000	-1.208509
	2.135000	-1.289093
	2.140000	-1.247189
	2.145000	-1.198839
	2.150000	-1.260083
	2.155000	-1.350337
	2.160000	-1.314880
	2.165000	-1.276199
	2.170000	-1.347113
	2.175000	-1.437367
	2.180000	-1.405134
	2.185000	-1.363230
	2.190000	-1.437367
	2.195000	-1.524398
	2.200000	-1.492164
	2.205000	-1.450261
	2.210000	-1.527621
	2.215000	-1.604982
	2.220000	-1.572748
	2.225000	-1.511505
	2.230000	-1.579195
	2.235000	-1.663002
	2.240000	-1.608205
	2.245000	-1.553408
	2.250000	-1.614652
	2.255000	-1.682343
	2.260000	-1.630769
	2.265000	-1.572748
	2.270000	-1.643662
	2.275000	-1.701683
	2.280000	-1.653332
	2.285000	-1.582418
	2.290000	-1.637216
	2.295000	-1.711353
	2.300000	-1.653332
	2.305000	-1.582418
	2.310000	-1.640439
	2.315000	-1.701683
	2.320000	-1.646886
	2.325000	-1.579195
	2.330000	-1.640439
	2.335000	-1.701683
	2.340000	-1.637216
	2.345000	-1.572748
	2.350000	-1.633992
	2.355000	-1.695236
	2.360000	-1.630769
	2.365000	-1.563078
	2.370000	-1.621099
	2.375000	-1.688789
	2.380000	-1.621099
	2.385000	-1.559855
	2.390000	-1.611429
	2.395000	-1.675896
	2.400000	-1.621099
	2.405000	-1.550185
	2.410000	-1.601759
	2.415000	-1.675896
	2.420000	-1.611429
	2.425000	-1.543738
	2.430000	-1.595312
	2.435000	-1.659779
	2.440000	-1.598535
	2.445000	-1.540515
	2.450000	-1.592089
	2.455000	-1.653332
	2.460000	-1.588865
	2.465000	-1.527621
	2.470000	-1.588865
	2.475000	-1.653332
	2.480000	-1.582418
	2.485000	-1.511505
	2.490000	-1.575972
	2.495000	-1.637216
	2.500000	-1.579195
	2.505000	-1.505058
	2.510000	-1.566302
	2.515000	-1.627546
	2.520000	-1.569525
	2.525000	-1.498611
	2.530000	-1.556632
	2.535000	-1.621099
	2.540000	-1.556632
	2.545000	-1.488941
	2.550000	-1.550185
	2.555000	-1.608205
	2.560000	-1.550185
	2.565000	-1.479271
	2.570000	-1.540515
	2.575000	-1.595312
	2.580000	-1.537291
	2.585000	-1.472824
	2.590000	-1.534068
	2.595000	-1.588865
	2.600000	-1.521175
	2.605000	-1.459931
	2.610000	-1.521175
	2.615000	-1.585642
	2.620000	-1.517951
	2.625000	-1.450261
	2.630000	-1.508281
	2.635000	-1.572748
	2.640000	-1.511505
	2.645000	-1.443814
	2.650000	-1.505058
	2.655000	-1.566302
	2.660000	-1.505058
	2.665000	-1.437367
	2.670000	-1.498611
	2.675000	-1.559855
	2.680000	-1.498611
	2.685000	-1.427697
	2.690000	-1.488941
	2.695000	-1.559855
	2.700000	-1.492164
	2.705000	-1.430921
	2.710000	-1.488941
	2.715000	-1.553408
	2.720000	-1.492164
	2.725000	-1.424474
	2.730000	-1.488941
	2.735000	-1.546962
	2.740000	-1.488941
	2.745000	-1.424474
	2.750000	-1.485718
	2.755000	-1.553408
	2.760000	-1.492164
	2.765000	-1.427697
	2.770000	-1.488941
	2.775000	-1.546962
	2.780000	-1.488941
	2.785000	-1.421251
	2.790000	-1.479271
	2.795000	-1.543738
	2.800000	-1.485718
	2.805000	-1.418027
	2.810000	-1.485718
	2.815000	-1.550185
	2.820000	-1.488941
	2.825000	-1.424474
	2.830000	-1.485718
	2.835000	-1.546962
	2.840000	-1.485718
	2.845000	-1.421251
	2.850000	-1.479271
	2.855000	-1.543738
	2.860000	-1.482494
	2.865000	-1.414804
	2.870000	-1.479271
	2.875000	-1.540515
	2.880000	-1.485718
	2.885000	-1.414804
	2.890000	-1.482494
	2.895000	-1.540515
	2.900000	-1.485718
	2.905000	-1.418027
	2.910000	-1.479271
	2.915000	-1.543738
	2.920000	-1.479271
	2.925000	-1.418027
	2.930000	-1.472824
	2.935000	-1.534068
	2.940000	-1.485718
	2.945000	-1.408357
	2.950000	-1.479271
	2.955000	-1.537291
	2.960000	-1.479271
	2.965000	-1.408357
	2.970000	-1.466378
	2.975000	-1.537291
	2.980000	-1.476048
	2.985000	-1.414804
	2.990000	-1.479271
	2.995000	-1.537291
	3.000000	-1.479271
	3.005000	-1.414804
	3.010000	-1.476048
	3.015000	-1.540515
	3.020000	-1.479271
	3.025000	-1.411580
	3.030000	-1.476048
	3.035000	-1.534068
	3.040000	-1.479271
	3.045000	-1.411580
	3.050000	-1.469601
	3.055000	-1.534068
	3.060000	-1.479271
	3.065000	-1.405134
	3.070000	-1.469601
	3.075000	-1.527621
	3.080000	-1.472824
	3.085000	-1.405134
	3.090000	-1.472824
	3.095000	-1.530845
	3.100000	-1.469601
	3.105000	-1.408357
	3.110000	-1.463154
	3.115000	-1.534068
	3.120000	-1.469601
	3.125000	-1.405134
	3.130000	-1.463154
	3.135000	-1.524398
	3.140000	-1.463154
	3.145000	-1.401910
	3.150000	-1.459931
	3.155000	-1.527621
	3.160000	-1.453484
	3.165000	-1.401910
	3.170000	-1.453484
	3.175000	-1.524398
	3.180000	-1.456707
	3.185000	-1.398687
	3.190000	-1.447037
	3.195000	-1.514728
	3.200000	-1.459931
	3.205000	-1.382570
	3.210000	-1.453484
	3.215000	-1.517951
	3.220000	-1.447037
	3.225000	-1.389017
	3.230000	-1.450261
	3.235000	-1.517951
	3.240000	-1.450261
	3.245000	-1.392240
	3.250000	-1.453484
	3.255000	-1.517951
	3.260000	-1.453484
	3.265000	-1.389017
	3.270000	-1.450261
	3.275000	-1.521175
	3.280000	-1.459931
	3.285000	-1.395464
	3.290000	-1.450261
	3.295000	-1.517951
	3.300000	-1.453484
	3.305000	-1.395464
	3.310000	-1.453484
	3.315000	-1.527621
	3.320000	-1.456707
	3.325000	-1.392240
	3.330000	-1.456707
	3.335000	-1.524398
	3.340000	-1.459931
	3.345000	-1.398687
	3.350000	-1.459931
	3.355000	-1.521175
	3.360000	-1.463154
	3.365000	-1.405134
	3.370000	-1.463154
	3.375000	-1.530845
	3.380000	-1.466378
	3.385000	-1.401910
	3.390000	-1.469601
	3.395000	-1.530845
	3.400000	-1.476048
	3.405000	-1.411580
	3.410000	-1.476048
	3.415000	-1.540515
	3.420000	-1.479271
	3.425000	-1.414804
	3.430000	-1.479271
	3.435000	-1.546962
	3.440000	-1.482494
	3.445000	-1.424474
	3.450000	-1.485718
	3.455000	-1.550185
	3.460000	-1.488941
	3.465000	-1.418027
	3.470000	-1.492164
	3.475000	-1.556632
	3.480000	-1.492164
	3.485000	-1.437367
	3.490000	-1.505058
	3.495000	-1.563078
	3.500000	-1.495388
	3.505000	-1.437367
	3.510000	-1.501835
	3.515000	-1.566302
	3.520000	-1.505058
	3.525000	-1.443814
	3.530000	-1.508281
	3.535000	-1.569525
	3.540000	-1.511505
	3.545000	-1.440591
	3.550000	-1.508281
	3.555000	-1.575972
	3.560000	-1.511505
	3.565000	-1.447037
	3.570000	-1.505058
	3.575000	-1.569525
	3.580000	-1.511505
	3.585000	-1.450261
	3.590000	-1.508281
	3.595000	-1.575972
	3.600000	-1.514728
	3.605000	-1.453484
	3.610000	-1.521175
	3.615000	-1.579195
	3.620000	-1.514728
	3.625000	-1.459931
	3.630000	-1.527621
	3.635000	-1.585642
	3.640000	-1.521175
	3.645000	-1.463154
	3.650000	-1.527621
	3.655000	-1.592089
	3.660000	-1.530845
	3.665000	-1.463154
	3.670000	-1.534068
	3.675000	-1.592089
	3.680000	-1.524398
	3.685000	-1.472824
	3.690000	-1.530845
	3.695000	-1.601759
	3.700000	-1.530845
	3.705000	-1.476048
	3.710000	-1.543738
	3.715000	-1.601759
	3.720000	-1.540515
	3.725000	-1.476048
	3.730000	-1.543738
	3.735000	-1.608205
	3.740000	-1.540515
	3.745000	-1.479271
	3.750000	-1.543738
	3.755000	-1.611429
	3.760000	-1.543738
	3.765000	-1.482494
	3.770000	-1.546962
	3.775000	-1.608205
	3.780000	-1.546962
	3.785000	-1.482494
	3.790000	-1.553408
	3.795000	-1.614652
	3.800000	-1.546962
	3.805000	-1.488941
	3.810000	-1.543738
	3.815000	-1.608205
	3.820000	-1.550185
	3.825000	-1.482494
	3.830000	-1.556632
	3.835000	-1.614652
	3.840000	-1.543738
	3.845000	-1.485718
	3.850000	-1.556632
	3.855000	-1.611429
	3.860000	-1.553408
	3.865000	-1.485718
	3.870000	-1.546962
	3.875000	-1.611429
	3.880000	-1.543738
	3.885000	-1.479271
	3.890000	-1.553408
	3.895000	-1.614652
	3.900000	-1.546962
	3.905000	-1.482494
	3.910000	-1.543738
	3.915000	-1.611429
	3.920000	-1.546962
	3.925000	-1.485718
	3.930000	-1.550185
	3.935000	-1.608205
	3.940000	-1.546962
	3.945000	-1.482494
	3.950000	-1.550185
	3.955000	-1.611429
	3.960000	-1.546962
	3.965000	-1.482494
	3.970000	-1.546962
	3.975000	-1.611429
	3.980000	-1.540515
	3.985000	-1.479271
	3.990000	-1.553408
	3.995000	-1.604982
	4.000000	-1.546962
	4.005000	-1.482494
	4.010000	-1.550185
	4.015000	-1.611429
	4.020000	-1.540515
	4.025000	-1.482494
	4.030000	-1.546962
	4.035000	-1.611429
	4.040000	-1.543738
	4.045000	-1.482494
	4.050000	-1.550185
	4.055000	-1.614652
	4.060000	-1.540515
	4.065000	-1.479271
	4.070000	-1.550185
	4.075000	-1.611429
	4.080000	-1.546962
	4.085000	-1.485718
	4.090000	-1.550185
	4.095000	-1.611429
	4.100000	-1.546962
	4.105000	-1.482494
	4.110000	-1.550185
	4.115000	-1.608205
	4.120000	-1.543738
	4.125000	-1.479271
	4.130000	-1.543738
	4.135000	-1.604982
	4.140000	-1.540515
	4.145000	-1.479271
	4.150000	-1.543738
	4.155000	-1.604982
	4.160000	-1.543738
	4.165000	-1.476048
	4.170000	-1.546962
	4.175000	-1.601759
	4.180000	-1.537291
	4.185000	-1.469601
	4.190000	-1.540515
	4.195000	-1.601759
	4.200000	-1.534068
	4.205000	-1.476048
	4.210000	-1.537291
	4.215000	-1.601759
	4.220000	-1.537291
	4.225000	-1.469601
	4.230000	-1.540515
	4.235000	-1.598535
	4.240000	-1.537291
	4.245000	-1.472824
	4.250000	-1.534068
	4.255000	-1.601759
	4.260000	-1.540515
	4.265000	-1.472824
	4.270000	-1.530845
	4.275000	-1.598535
	4.280000	-1.537291
	4.285000	-1.469601
	4.290000	-1.534068
	4.295000	-1.595312
	4.300000	-1.534068
	4.305000	-1.469601
	4.310000	-1.530845
	4.315000	-1.601759
	4.320000	-1.534068
	4.325000	-1.463154
	4.330000	-1.537291
	4.335000	-1.598535
	4.340000	-1.540515
	4.345000	-1.469601
	4.350000	-1.540515
	4.355000	-1.595312
	4.360000	-1.534068
	4.365000	-1.472824
	4.370000	-1.537291
	4.375000	-1.598535
	4.380000	-1.530845
	4.385000	-1.459931
	4.390000	-1.537291
	4.395000	-1.598535
	4.400000	-1.534068
	4.405000	-1.466378
	4.410000	-1.530845
	4.415000	-1.588865
	4.420000	-1.527621
	4.425000	-1.463154
	4.430000	-1.530845
	4.435000	-1.595312
	4.440000	-1.524398
	4.445000	-1.463154
	4.450000	-1.527621
	4.455000	-1.595312
	4.460000	-1.527621
	4.465000	-1.459931
	4.470000	-1.527621
	4.475000	-1.592089
	4.480000	-1.521175
	4.485000	-1.466378
	4.490000	-1.527621
	4.495000	-1.595312
	4.500000	-1.527621
	4.505000	-1.456707
	4.510000	-1.530845
	4.515000	-1.588865
	4.520000	-1.517951
	4.525000	-1.453484
	4.530000	-1.524398
	4.535000	-1.592089
	4.540000	-1.517951
	4.545000	-1.459931
	4.550000	-1.524398
	4.555000	-1.588865
	4.560000	-1.521175
	4.565000	-1.459931
	4.570000	-1.527621
	4.575000	-1.579195
	4.580000	-1.517951
	4.585000	-1.456707
	4.590000	-1.524398
	4.595000	-1.585642
	4.600000	-1.514728
	4.605000	-1.459931
	4.610000	-1.517951
	4.615000	-1.585642
	4.620000	-1.511505
	4.625000	-1.450261
	4.630000	-1.524398
	4.635000	-1.575972
	4.640000	-1.514728
	4.645000	-1.450261
	4.650000	-1.521175
	4.655000	-1.579195
	4.660000	-1.508281
	4.665000	-1.453484
	4.670000	-1.517951
	4.675000	-1.582418
	4.680000	-1.511505
	4.685000	-1.450261
	4.690000	-1.514728
	4.695000	-1.582418
	4.700000	-1.511505
	4.705000	-1.450261
	4.710000	-1.517951
	4.715000	-1.572748
	4.720000	-1.505058
	4.725000	-1.443814
	4.730000	-1.514728
	4.735000	-1.579195
	4.740000	-1.505058
	4.745000	-1.440591
	4.750000	-1.514728
	4.755000	-1.575972
	4.760000	-1.501835
	4.765000	-1.440591
	4.770000	-1.508281
	4.775000	-1.579195
	4.780000	-1.505058
	4.785000	-1.443814
	4.790000	-1.511505
	4.795000	-1.572748
	4.800000	-1.505058
	4.805000	-1.437367
	4.810000	-1.511505
	4.815000	-1.569525
	4.820000	-1.505058
	4.825000	-1.440591
	4.830000	-1.511505
	4.835000	-1.569525
	4.840000	-1.495388
	4.845000	-1.434144
	4.850000	-1.508281
	4.855000	-1.569525
	4.860000	-1.508281
	4.865000	-1.443814
	4.870000	-1.508281
	4.875000	-1.569525
	4.880000	-1.505058
	4.885000	-1.437367
	4.890000	-1.508281
	4.895000	-1.572748
	4.900000	-1.501835
	4.905000	-1.447037
	4.910000	-1.511505
	4.915000	-1.572748
	4.920000	-1.501835
	4.925000	-1.437367
	4.930000	-1.511505
	4.935000	-1.566302
	4.940000	-1.505058
	4.945000	-1.437367
	4.950000	-1.508281
	4.955000	-1.572748
	4.960000	-1.505058
	4.965000	-1.443814
	4.970000	-1.514728
	4.975000	-1.575972
	4.980000	-1.501835
	4.985000	-1.440591
	4.990000	-1.505058
	4.995000	-1.569525
	5.000000	-1.505058
	5.005000	-1.447037
	5.010000	-1.514728
	5.015000	-1.572748
	5.020000	-1.495388
	5.025000	-1.440591
	5.030000	-1.517951
	5.035000	-1.575972
	5.040000	-1.508281
	5.045000	-1.443814
	5.050000	-1.511505
	5.055000	-1.569525
	5.060000	-1.495388
	5.065000	-1.437367
	5.070000	-1.508281
	5.075000	-1.569525
	5.080000	-1.501835
	5.085000	-1.443814
	5.090000	-1.508281
	5.095000	-1.575972
	5.100000	-1.501835
	5.105000	-1.437367
	5.110000	-1.514728
	5.115000	-1.569525
	5.120000	-1.501835
	5.125000	-1.447037
	5.130000	-1.511505
	5.135000	-1.569525
	5.140000	-1.501835
	5.145000	-1.440591
	5.150000	-1.508281
	5.155000	-1.566302
	5.160000	-1.498611
	5.165000	-1.440591
	5.170000	-1.505058
	5.175000	-1.572748
	5.180000	-1.501835
	5.185000	-1.443814
	5.190000	-1.511505
	5.195000	-1.575972
	5.200000	-1.511505
	5.205000	-1.430921
	5.210000	-1.508281
	5.215000	-1.569525
	5.220000	-1.492164
	5.225000	-1.434144
	5.230000	-1.508281
	5.235000	-1.572748
	5.240000	-1.501835
	5.245000	-1.437367
	5.250000	-1.511505
	5.255000	-1.566302
	5.260000	-1.492164
	5.265000	-1.430921
	5.270000	-1.501835
	5.275000	-1.563078
	5.280000	-1.492164
	5.285000	-1.434144
	5.290000	-1.501835
	5.295000	-1.559855
	5.300000	-1.492164
	5.305000	-1.437367
	5.310000	-1.501835
	5.315000	-1.566302
	5.320000	-1.495388
	5.325000	-1.427697
	5.330000	-1.511505
	5.335000	-1.563078
	5.340000	-1.495388
	5.345000	-1.437367
	5.350000	-1.505058
	5.355000	-1.569525
	5.360000	-1.501835
	5.365000	-1.440591
	5.370000	-1.508281
	5.375000	-1.566302
	5.380000	-1.495388
	5.385000	-1.434144
	5.390000	-1.505058
	5.395000	-1.550185
	5.400000	-1.463154
	5.405000	-1.385794
	5.410000	-1.414804
	5.415000	-1.453484
	5.420000	-1.350337
	5.425000	-1.260083
	5.430000	-1.298763
	5.435000	-1.327773
	5.440000	-1.250413
	5.445000	-1.166605
	5.450000	-1.218179
	5.455000	-1.266529
	5.460000	-1.189169
	5.465000	-1.118255
	5.470000	-1.179499
	5.475000	-1.224626
	5.480000	-1.150488
	5.485000	-1.089245
	5.490000	-1.147265
	5.495000	-1.192392
	5.500000	-1.127925
	5.505000	-1.060234
	5.510000	-1.131148
	5.515000	-1.182722
	5.520000	-1.108585
	5.525000	-1.040894
	5.530000	-1.111808
	5.535000	-1.160158
	5.540000	-1.089245
	5.545000	-1.031224
	5.550000	-1.086021
	5.555000	-1.147265
	5.560000	-1.073128
	5.565000	-1.005437
	5.570000	-1.069904
	5.575000	-1.121478
	5.580000	-1.057011
	5.585000	-0.992544
	5.590000	-1.066681
	5.595000	-1.108585
	5.600000	-1.047341
	5.605000	-0.992544
	5.610000	-1.047341
	5.615000	-1.102138
	5.620000	-1.034447
	5.625000	-0.976427
	5.630000	-1.040894
	5.635000	-1.089245
	5.640000	-1.024777
	5.645000	-0.969980
	5.650000	-1.034447
	5.655000	-1.092468
	5.660000	-1.028001
	5.665000	-0.973204
	5.670000	-1.034447
	5.675000	-1.086021
	5.680000	-1.021554
	5.685000	-0.966757
	5.690000	-1.031224
	5.695000	-1.082798
	5.700000	-1.018331
	5.705000	-0.960310
	5.710000	-1.021554
	5.715000	-1.082798
	5.720000	-1.018331
	5.725000	-0.957087
	5.730000	-1.024777
	5.735000	-1.073128
	5.740000	-1.018331
	5.745000	-0.960310
	5.750000	-1.024777
	5.755000	-1.076351
	5.760000	-1.008661
	5.765000	-0.960310
	5.770000	-1.021554
	5.775000	-1.079574
	5.780000	-1.008661
	5.785000	-0.953863
	5.790000	-1.024777
	5.795000	-1.073128
	5.800000	-1.008661
	5.805000	-0.960310
	5.810000	-1.021554
	5.815000	-1.073128
	5.820000	-1.011884
	5.825000	-0.966757
	5.830000	-1.028001
	5.835000	-1.086021
	5.840000	-1.024777
	5.845000	-0.973204
	5.850000	-1.031224
	5.855000	-1.082798
	5.860000	-1.018331
	5.865000	-0.973204
	5.870000	-1.034447
	5.875000	-1.086021
	5.880000	-1.021554
	5.885000	-0.976427
	5.890000	-1.040894
	5.895000	-1.095691
	5.900000	-1.040894
	5.905000	-0.989320
	5.910000	-1.053788
	5.915000	-1.098915
	5.920000	-1.047341
	5.925000	-0.998991
	5.930000	-1.057011
	5.935000	-1.118255
	5.940000	-1.063458
	5.945000	-1.015107
	5.950000	-1.092468
	5.955000	-1.147265
	5.960000	-1.089245
	5.965000	-1.047341
	5.970000	-1.127925
	5.975000	-1.192392
	5.980000	-1.147265
	5.985000	-1.102138
	5.990000	-1.176275
	5.995000	-1.243966
	6.000000	-1.195615
	6.005000	-1.156935
	6.010000	-1.231072
	6.015000	-1.295540
	6.020000	-1.243966
	6.025000	-1.208509
	6.030000	-1.289093
	6.035000	-1.353560
	6.040000	-1.305210
	6.045000	-1.266529
	6.050000	-1.353560
	6.055000	-1.421251
	6.060000	-1.369677
	6.065000	-1.330996
	6.070000	-1.418027
	6.075000	-1.488941
	6.080000	-1.434144
	6.085000	-1.398687
	6.090000	-1.476048
	6.095000	-1.546962
	6.100000	-1.485718
	6.105000	-1.437367
	6.110000	-1.511505
	6.115000	-1.579195
	6.120000	-1.521175
	6.125000	-1.479271
	6.130000	-1.543738
	6.135000	-1.604982
	6.140000	-1.550185
	6.145000	-1.501835
	6.150000	-1.572748
	6.155000	-1.637216
	6.160000	-1.579195
	6.165000	-1.517951
	6.170000	-1.588865
	6.175000	-1.653332
	6.180000	-1.585642
	6.185000	-1.534068
	6.190000	-1.601759
	6.195000	-1.659779
	6.200000	-1.585642
	6.205000	-1.540515
	6.210000	-1.604982
	6.215000	-1.669449
	6.220000	-1.592089
	6.225000	-1.540515
	6.230000	-1.608205
	6.235000	-1.659779
	6.240000	-1.598535
	6.245000	-1.540515
	6.250000	-1.611429
	6.255000	-1.656556
	6.260000	-1.588865
	6.265000	-1.534068
	6.270000	-1.598535
	6.275000	-1.656556
	6.280000	-1.585642
	6.285000	-1.530845
	6.290000	-1.601759
	6.295000	-1.653332
	6.300000	-1.579195
	6.305000	-1.524398
	6.310000	-1.595312
	6.315000	-1.646886
	6.320000	-1.575972
	6.325000	-1.521175
	6.330000	-1.585642
	6.335000	-1.640439
	6.340000	-1.569525
	6.345000	-1.511505
	6.350000	-1.588865
	6.355000	-1.640439
	6.360000	-1.563078
	6.365000	-1.505058
	6.370000	-1.572748
	6.375000	-1.627546
	6.380000	-1.563078
	6.385000	-1.505058
	6.390000	-1.569525
	6.395000	-1.630769
	6.400000	-1.559855
	6.405000	-1.498611
	6.410000	-1.569525
	6.415000	-1.624322
	6.420000	-1.550185
	6.425000	-1.495388
	6.430000	-1.566302
	6.435000	-1.621099
	6.440000	-1.543738
	6.445000	-1.492164
	6.450000	-1.559855
	6.455000	-1.617875
	6.460000	-1.543738
	6.465000	-1.488941
	6.470000	-1.556632
	6.475000	-1.614652
	6.480000	-1.540515
	6.485000	-1.485718
	6.490000	-1.553408
	6.495000	-1.611429
	6.500000	-1.540515
	6.505000	-1.482494
	6.510000	-1.543738
	6.515000	-1.608205
	6.520000	-1.537291
	6.525000	-1.482494
	6.530000	-1.550185
	6.535000	-1.608205
	6.540000	-1.540515
	6.545000	-1.479271
	6.550000	-1.550185
	6.555000	-1.604982
	6.560000	-1.524398
	6.565000	-1.469601
	6.570000	-1.546962
	6.575000	-1.595312
	6.580000	-1.524398
	6.585000	-1.469601
	6.590000	-1.540515
	6.595000	-1.598535
	6.600000	-1.521175
	6.605000	-1.463154
	6.610000	-1.540515
	6.615000	-1.585642
	6.620000	-1.521175
	6.625000	-1.466378
	6.630000	-1.534068
	6.635000	-1.595312
	6.640000	-1.521175
	6.645000	-1.459931
	6.650000	-1.537291
	6.655000	-1.592089
	6.660000	-1.521175
	6.665000	-1.463154
	6.670000	-1.537291
	6.675000	-1.592089
	6.680000	-1.521175
	6.685000	-1.466378
	6.690000	-1.530845
	6.695000	-1.595312
	6.700000	-1.521175
	6.705000	-1.466378
	6.710000	-1.540515
	6.715000	-1.592089
	6.720000	-1.521175
	6.725000	-1.466378
	6.730000	-1.537291
	6.735000	-1.598535
	6.740000	-1.527621
	6.745000	-1.463154
	6.750000	-1.546962
	6.755000	-1.588865
	6.760000	-1.527621
	6.765000	-1.466378
	6.770000	-1.540515
	6.775000	-1.595312
	6.780000	-1.524398
	6.785000	-1.463154
	6.790000	-1.540515
	6.795000	-1.595312
	6.800000	-1.517951
	6.805000	-1.472824
	6.810000	-1.534068
	6.815000	-1.598535
	6.820000	-1.521175
	6.825000	-1.469601
	6.830000	-1.540515
	6.835000	-1.598535
	6.840000	-1.524398
	6.845000	-1.472824
	6.850000	-1.543738
	6.855000	-1.598535
	6.860000	-1.521175
	6.865000	-1.469601
	6.870000	-1.543738
	6.875000	-1.595312
	6.880000	-1.521175
	6.885000	-1.466378
	6.890000	-1.543738
	6.895000	-1.598535
	6.900000	-1.517951
	6.905000	-1.472824
	6.910000	-1.540515
	6.915000	-1.601759
	6.920000	-1.521175
	6.925000	-1.469601
	6.930000	-1.537291
	6.935000	-1.595312
	6.940000	-1.527621
	6.945000	-1.472824
	6.950000	-1.540515
	6.955000	-1.595312
	6.960000	-1.524398
	6.965000	-1.463154
	6.970000	-1.540515
	6.975000	-1.601759
	6.980000	-1.527621
	6.985000	-1.466378
	6.990000	-1.540515
	6.995000	-1.592089
	7.000000	-1.527621
	7.005000	-1.469601
	7.010000	-1.540515
	7.015000	-1.598535
	7.020000	-1.521175
	7.025000	-1.469601
	7.030000	-1.546962
	7.035000	-1.608205
	7.040000	-1.527621
	7.045000	-1.472824
	7.050000	-1.540515
	7.055000	-1.598535
	7.060000	-1.524398
	7.065000	-1.472824
	7.070000	-1.540515
	7.075000	-1.598535
	7.080000	-1.517951
	7.085000	-1.476048
	7.090000	-1.546962
	7.095000	-1.595312
	7.100000	-1.524398
	7.105000	-1.469601
	7.110000	-1.543738
	7.115000	-1.595312
	7.120000	-1.530845
	7.125000	-1.466378
	7.130000	-1.543738
	7.135000	-1.598535
	7.140000	-1.524398
	7.145000	-1.472824
	7.150000	-1.537291
	7.155000	-1.592089
	7.160000	-1.527621
	7.165000	-1.466378
	7.170000	-1.537291
	7.175000	-1.595312
	7.180000	-1.524398
	7.185000	-1.469601
	7.190000	-1.546962
	7.195000	-1.595312
	7.200000	-1.521175
	7.205000	-1.469601
	7.210000	-1.540515
	7.215000	-1.595312
	7.220000	-1.524398
	7.225000	-1.466378
	7.230000	-1.537291
	7.235000	-1.595312
	7.240000	-1.521175
	7.245000	-1.469601
	7.250000	-1.537291
	7.255000	-1.595312
	7.260000	-1.524398
	7.265000	-1.466378
	7.270000	-1.537291
	7.275000	-1.592089
	7.280000	-1.514728
	7.285000	-1.463154
	7.290000	-1.534068
	7.295000	-1.585642
	7.300000	-1.514728
	7.305000	-1.466378
	7.310000	-1.540515
	7.315000	-1.592089
	7.320000	-1.517951
	7.325000	-1.463154
	7.330000	-1.534068
	7.335000	-1.592089
	7.340000	-1.517951
	7.345000	-1.466378
	7.350000	-1.534068
	7.355000	-1.598535
	7.360000	-1.511505
	7.365000	-1.463154
	7.370000	-1.537291
	7.375000	-1.592089
	7.380000	-1.524398
	7.385000	-1.466378
	7.390000	-1.543738
	7.395000	-1.592089
	7.400000	-1.517951
	7.405000	-1.463154
	7.410000	-1.537291
	7.415000	-1.592089
	7.420000	-1.517951
	7.425000	-1.466378
	7.430000	-1.530845
	7.435000	-1.585642
	7.440000	-1.511505
	7.445000	-1.459931
	7.450000	-1.530845
	7.455000	-1.585642
	7.460000	-1.517951
	7.465000	-1.450261
	7.470000	-1.530845
	7.475000	-1.579195
	7.480000	-1.521175
	7.485000	-1.456707
	7.490000	-1.534068
	7.495000	-1.588865
	7.500000	-1.511505
	7.505000	-1.453484
	7.510000	-1.534068
	7.515000	-1.579195
	7.520000	-1.508281
	7.525000	-1.463154
	7.530000	-1.530845
	7.535000	-1.582418
	7.540000	-1.511505
	7.545000	-1.456707
	7.550000	-1.534068
	7.555000	-1.588865
	7.560000	-1.514728
	7.565000	-1.456707
	7.570000	-1.534068
	7.575000	-1.585642
	7.580000	-1.517951
	7.585000	-1.453484
	7.590000	-1.530845
	7.595000	-1.588865
	7.600000	-1.501835
	7.605000	-1.453484
	7.610000	-1.534068
	7.615000	-1.585642
	7.620000	-1.521175
	7.625000	-1.459931
	7.630000	-1.527621
	7.635000	-1.579195
	7.640000	-1.505058
	7.645000	-1.456707
	7.650000	-1.530845
	7.655000	-1.588865
	7.660000	-1.508281
	7.665000	-1.453484
	7.670000	-1.524398
	7.675000	-1.585642
	7.680000	-1.501835
	7.685000	-1.456707
	7.690000	-1.527621
	7.695000	-1.582418
	7.700000	-1.508281
	7.705000	-1.459931
	7.710000	-1.527621
	7.715000	-1.582418
	7.720000	-1.505058
	7.725000	-1.450261
	7.730000	-1.530845
	7.735000	-1.575972
	7.740000	-1.498611
	7.745000	-1.453484
	7.750000	-1.527621
	7.755000	-1.579195
	7.760000	-1.505058
	7.765000	-1.453484
	7.770000	-1.527621
	7.775000	-1.575972
	7.780000	-1.501835
	7.785000	-1.453484
	7.790000	-1.527621
	7.795000	-1.575972
	7.800000	-1.505058
	7.805000	-1.447037
	7.810000	-1.524398
	7.815000	-1.579195
	7.820000	-1.508281
	7.825000	-1.450261
	7.830000	-1.524398
	7.835000	-1.582418
	7.840000	-1.501835
	7.845000	-1.447037
	7.850000	-1.524398
	7.855000	-1.575972
	7.860000	-1.498611
	7.865000	-1.447037
	7.870000	-1.524398
	7.875000	-1.579195
	7.880000	-1.498611
	7.885000	-1.453484
	7.890000	-1.517951
	7.895000	-1.575972
	7.900000	-1.501835
	7.905000	-1.447037
	7.910000	-1.517951
	7.915000	-1.572748
	7.920000	-1.501835
	7.925000	-1.447037
	7.930000	-1.521175
	7.935000	-1.575972
	7.940000	-1.501835
	7.945000	-1.437367
	7.950000	-1.514728
	7.955000	-1.575972
	7.960000	-1.492164
	7.965000	-1.447037
	7.970000	-1.517951
	7.975000	-1.572748
	7.980000	-1.498611
	7.985000	-1.447037
	7.990000	-1.511505
	7.995000	-1.569525
	8.000000	-1.498611
	8.005000	-1.440591
	8.010000	-1.517951
	8.015000	-1.563078
	8.020000	-1.485718
	8.025000	-1.437367
	8.030000	-1.514728
	8.035000	-1.563078
	8.040000	-1.495388
	8.045000	-1.437367
	8.050000	-1.514728
	8.055000	-1.566302
	8.060000	-1.495388
	8.065000	-1.440591
	8.070000	-1.508281
	8.075000	-1.572748
	8.080000	-1.485718
	8.085000	-1.443814
	8.090000	-1.517951
	8.095000	-1.569525
	8.100000	-1.492164
	8.105000	-1.437367
	8.110000	-1.508281
	8.115000	-1.566302
	8.120000	-1.495388
	8.125000	-1.437367
	8.130000	-1.511505
	8.135000	-1.563078
	8.140000	-1.498611
	8.145000	-1.443814
	8.150000	-1.514728
	8.155000	-1.563078
	8.160000	-1.485718
	8.165000	-1.434144
	8.170000	-1.511505
	8.175000	-1.563078
	8.180000	-1.492164
	8.185000	-1.443814
	8.190000	-1.505058
	8.195000	-1.566302
	8.200000	-1.492164
	8.205000	-1.440591
	8.210000	-1.511505
	8.215000	-1.563078
	8.220000	-1.488941
	8.225000	-1.430921
	8.230000	-1.511505
	8.235000	-1.569525
	8.240000	-1.488941
	8.245000	-1.430921
	8.250000	-1.511505
	8.255000	-1.559855
	8.260000	-1.479271
	8.265000	-1.434144
	8.270000	-1.517951
	8.275000	-1.559855
	8.280000	-1.488941
	8.285000	-1.440591
	8.290000	-1.511505
	8.295000	-1.563078
	8.300000	-1.482494
	8.305000	-1.443814
	8.310000	-1.511505
	8.315000	-1.563078
	8.320000	-1.488941
	8.325000	-1.440591
	8.330000	-1.511505
	8.335000	-1.556632
	8.340000	-1.488941
	8.345000	-1.434144
	8.350000	-1.508281
	8.355000	-1.553408
	8.360000	-1.482494
	8.365000	-1.434144
	8.370000	-1.501835
	8.375000	-1.550185
	8.380000	-1.479271
	8.385000	-1.418027
	8.390000	-1.492164
	8.395000	-1.537291
	8.400000	-1.466378
	8.405000	-1.421251
	8.410000	-1.488941
	8.415000	-1.534068
	8.420000	-1.463154
	8.425000	-1.414804
	8.430000	-1.485718
	8.435000	-1.530845
	8.440000	-1.453484
	8.445000	-1.408357
	8.450000	-1.476048
	8.455000	-1.517951
	8.460000	-1.447037
	8.465000	-1.405134
	8.470000	-1.472824
	8.475000	-1.514728
	8.480000	-1.453484
	8.485000	-1.398687
	8.490000	-1.466378
	8.495000	-1.521175
	8.500000	-1.440591
	8.505000	-1.395464
	8.510000	-1.463154
	8.515000	-1.498611
	8.520000	-1.434144
	8.525000	-1.398687
	8.530000	-1.456707
	8.535000	-1.495388
	8.540000	-1.430921
	8.545000	-1.389017
	8.550000	-1.443814
	8.555000	-1.495388
	8.560000	-1.421251
	8.565000	-1.382570
	8.570000	-1.447037
	8.575000	-1.495388
	8.580000	-1.427697
	8.585000	-1.382570
	8.590000	-1.450261
	8.595000	-1.488941
	8.600000	-1.424474
	8.605000	-1.379347
	8.610000	-1.443814
	8.615000	-1.482494
	8.620000	-1.421251
	8.625000	-1.376124
	8.630000	-1.440591
	8.635000	-1.492164
	8.640000	-1.414804
	8.645000	-1.376124
	8.650000	-1.440591
	8.655000	-1.485718
	8.660000	-1.414804
	8.665000	-1.372900
	8.670000	-1.437367
	8.675000	-1.485718
	8.680000	-1.414804
	8.685000	-1.369677
	8.690000	-1.440591
	8.695000	-1.476048
	8.700000	-1.414804
	8.705000	-1.372900
	8.710000	-1.437367
	8.715000	-1.469601
	8.720000	-1.408357
	8.725000	-1.366453
	8.730000	-1.434144
	8.735000	-1.466378
	8.740000	-1.405134
	8.745000	-1.363230
	8.750000	-1.427697
	8.755000	-1.466378
	8.760000	-1.398687
	8.765000	-1.360007
	8.770000	-1.424474
	8.775000	-1.463154
	8.780000	-1.401910
	8.785000	-1.356783
	8.790000	-1.424474
	8.795000	-1.459931
	8.800000	-1.395464
	8.805000	-1.360007
	8.810000	-1.421251
	8.815000	-1.459931
	8.820000	-1.395464
	8.825000	-1.353560
	8.830000	-1.418027
	8.835000	-1.450261
	8.840000	-1.382570
	8.845000	-1.350337
	8.850000	-1.418027
	8.855000	-1.456707
	8.860000	-1.382570
	8.865000	-1.343890
	8.870000	-1.421251
	8.875000	-1.453484
	8.880000	-1.379347
	8.885000	-1.343890
	8.890000	-1.408357
	8.895000	-1.456707
	8.900000	-1.382570
	8.905000	-1.340667
	8.910000	-1.408357
	8.915000	-1.447037
	8.920000	-1.382570
	8.925000	-1.337443
	8.930000	-1.408357
	8.935000	-1.443814
	8.940000	-1.376124
	8.945000	-1.343890
	8.950000	-1.401910
	8.955000	-1.447037
	8.960000	-1.385794
	8.965000	-1.337443
	8.970000	-1.401910
	8.975000	-1.443814
	8.980000	-1.379347
	8.985000	-1.334220
	8.990000	-1.401910
	8.995000	-1.447037
	9.000000	-1.379347
	9.005000	-1.337443
	9.010000	-1.401910
	9.015000	-1.443814
	9.020000	-1.376124
	9.025000	-1.340667
	9.030000	-1.395464
	9.035000	-1.440591
	9.040000	-1.369677
	9.045000	-1.327773
	9.050000	-1.398687
	9.055000	-1.440591
	9.060000	-1.369677
	9.065000	-1.330996
	9.070000	-1.398687
	9.075000	-1.440591
	9.080000	-1.372900
	9.085000	-1.324550
	9.090000	-1.395464
	9.095000	-1.440591
	9.100000	-1.379347
	9.105000	-1.334220
	9.110000	-1.408357
	9.115000	-1.440591
	9.120000	-1.376124
	9.125000	-1.334220
	9.130000	-1.398687
	9.135000	-1.440591
	9.140000	-1.376124
	9.145000	-1.337443
	9.150000	-1.401910
	9.155000	-1.450261
	9.160000	-1.382570
	9.165000	-1.334220
	9.170000	-1.408357
	9.175000	-1.447037
	9.180000	-1.382570
	9.185000	-1.340667
	9.190000	-1.405134
	9.195000	-1.447037
	9.200000	-1.382570
	9.205000	-1.337443
	9.210000	-1.408357
	9.215000	-1.440591
	9.220000	-1.376124
	9.225000	-1.340667
	9.230000	-1.405134
	9.235000	-1.443814
	9.240000	-1.376124
	9.245000	-1.337443
	9.250000	-1.408357
	9.255000	-1.440591
	9.260000	-1.379347
	9.265000	-1.334220
	9.270000	-1.405134
	9.275000	-1.440591
	9.280000	-1.379347
	9.285000	-1.340667
	9.290000	-1.408357
	9.295000	-1.443814
	9.300000	-1.376124
	9.305000	-1.337443
	9.310000	-1.405134
	9.315000	-1.447037
	9.320000	-1.379347
	9.325000	-1.327773
	9.330000	-1.408357
	9.335000	-1.450261
	9.340000	-1.382570
	9.345000	-1.334220
	9.350000	-1.405134
	9.355000	-1.437367
	9.360000	-1.372900
	9.365000	-1.334220
	9.370000	-1.405134
	9.375000	-1.443814
	9.380000	-1.376124
	9.385000	-1.334220
	9.390000	-1.405134
	9.395000	-1.440591
	9.400000	-1.372900
	9.405000	-1.337443
	9.410000	-1.398687
	9.415000	-1.443814
	9.420000	-1.366453
	9.425000	-1.340667
	9.430000	-1.405134
	9.435000	-1.447037
	9.440000	-1.376124
	9.445000	-1.340667
	9.450000	-1.405134
	9.455000	-1.443814
	9.460000	-1.382570
	9.465000	-1.334220
	9.470000	-1.401910
	9.475000	-1.440591
	9.480000	-1.372900
	9.485000	-1.340667
	9.490000	-1.408357
	9.495000	-1.443814
	9.500000	-1.379347
	9.505000	-1.337443
	9.510000	-1.405134
	9.515000	-1.456707
	9.520000	-1.376124
	9.525000	-1.343890
	9.530000	-1.408357
	9.535000	-1.453484
	9.540000	-1.382570
	9.545000	-1.343890
	9.550000	-1.414804
	9.555000	-1.450261
	9.560000	-1.382570
	9.565000	-1.347113
	9.570000	-1.414804
	9.575000	-1.456707
	9.580000	-1.382570
	9.585000	-1.347113
	9.590000	-1.411580
	9.595000	-1.459931
	9.600000	-1.385794
	9.605000	-1.353560
	9.610000	-1.418027
	9.615000	-1.463154
	9.620000	-1.395464
	9.625000	-1.353560
	9.630000	-1.421251
	9.635000	-1.463154
	9.640000	-1.385794
	9.645000	-1.356783
	9.650000	-1.424474
	9.655000	-1.459931
	9.660000	-1.395464
	9.665000	-1.356783
	9.670000	-1.427697
	9.675000	-1.456707
	9.680000	-1.398687
	9.685000	-1.363230
	9.690000	-1.430921
	9.695000	-1.472824
	9.700000	-1.401910
	9.705000	-1.366453
	9.710000	-1.434144
	9.715000	-1.476048
	9.720000	-1.408357
	9.725000	-1.372900
	9.730000	-1.430921
	9.735000	-1.479271
	9.740000	-1.411580
	9.745000	-1.372900
	9.750000	-1.450261
	9.755000	-1.482494
	9.760000	-1.411580
	9.765000	-1.376124
	9.770000	-1.434144
	9.775000	-1.488941
	9.780000	-1.414804
	9.785000	-1.385794
	9.790000	-1.450261
	9.795000	-1.488941
	9.800000	-1.424474
	9.805000	-1.382570
	9.810000	-1.456707
	9.815000	-1.495388
	9.820000	-1.430921
	9.825000	-1.389017
	9.830000	-1.466378
	9.835000	-1.505058
	9.840000	-1.430921
	9.845000	-1.398687
	9.850000	-1.466378
	9.855000	-1.505058
	9.860000	-1.434144
	9.865000	-1.392240
	9.870000	-1.459931
	9.875000	-1.505058
	9.880000	-1.430921
	9.885000	-1.395464
	9.890000	-1.469601
	9.895000	-1.514728
	9.900000	-1.443814
	9.905000	-1.405134
	9.910000	-1.469601
	9.915000	-1.521175
	9.920000	-1.456707
	9.925000	-1.401910
	9.930000	-1.469601
	9.935000	-1.521175
	9.940000	-1.443814
	9.945000	-1.405134
	9.950000	-1.482494
	9.955000	-1.521175
	9.960000	-1.456707
	9.965000	-1.411580
	9.970000	-1.485718
	9.975000	-1.530845
	9.980000	-1.459931
	9.985000	-1.408357
	9.990000	-1.485718
	9.995000	-1.534068
	10.000000	-1.459931
	10.005000	-1.418027
	10.010000	-1.488941
	10.015000	-1.530845
	10.020000	-1.453484
	10.025000	-1.418027
	10.030000	-1.495388
	10.035000	-1.537291
	10.040000	-1.456707
	10.045000	-1.418027
	10.050000	-1.498611
	10.055000	-1.537291
	10.060000	-1.469601
	10.065000	-1.421251
	10.070000	-1.501835
	10.075000	-1.543738
	10.080000	-1.466378
	10.085000	-1.434144
	10.090000	-1.508281
	10.095000	-1.550185
	10.100000	-1.476048
	10.105000	-1.437367
	10.110000	-1.514728
	10.115000	-1.553408
	10.120000	-1.482494
	10.125000	-1.430921
	10.130000	-1.521175
	10.135000	-1.559855
	10.140000	-1.488941
	10.145000	-1.440591
	10.150000	-1.524398
	10.155000	-1.566302
	10.160000	-1.501835
	10.165000	-1.443814
	10.170000	-1.527621
	10.175000	-1.572748
	10.180000	-1.488941
	10.185000	-1.453484
	10.190000	-1.527621
	10.195000	-1.575972
	10.200000	-1.501835
	10.205000	-1.453484
	10.210000	-1.534068
	10.215000	-1.575972
	10.220000	-1.505058
	10.225000	-1.456707
	10.230000	-1.530845
	10.235000	-1.575972
	10.240000	-1.501835
	10.245000	-1.456707
	10.250000	-1.540515
	10.255000	-1.582418
	10.260000	-1.508281
	10.265000	-1.459931
	10.270000	-1.540515
	10.275000	-1.588865
	10.280000	-1.511505
	10.285000	-1.459931
	10.290000	-1.534068
	10.295000	-1.585642
	10.300000	-1.511505
	10.305000	-1.463154
	10.310000	-1.540515
	10.315000	-1.582418
	10.320000	-1.511505
	10.325000	-1.469601
	10.330000	-1.546962
	10.335000	-1.592089
	10.340000	-1.514728
	10.345000	-1.466378
	10.350000	-1.543738
	10.355000	-1.588865
	10.360000	-1.514728
	10.365000	-1.469601
	10.370000	-1.556632
	10.375000	-1.598535
	10.380000	-1.521175
	10.385000	-1.469601
	10.390000	-1.546962
	10.395000	-1.595312
	10.400000	-1.521175
	10.405000	-1.469601
	10.410000	-1.550185
	10.415000	-1.592089
	10.420000	-1.517951
	10.425000	-1.472824
	10.430000	-1.543738
	10.435000	-1.592089
	10.440000	-1.521175
	10.445000	-1.469601
	10.450000	-1.550185
	10.455000	-1.598535
	10.460000	-1.517951
	10.465000	-1.472824
	10.470000	-1.563078
	10.475000	-1.601759
	10.480000	-1.527621
	10.485000	-1.485718
	10.490000	-1.559855
	10.495000	-1.611429
	10.500000	-1.521175
	10.505000	-1.479271
	10.510000	-1.566302
	10.515000	-1.614652
	10.520000	-1.537291
	10.525000	-1.488941
	10.530000	-1.572748
	10.535000	-1.611429
	10.540000	-1.543738
	10.545000	-1.492164
	10.550000	-1.579195
	10.555000	-1.611429
	10.560000	-1.543738
	10.565000	-1.492164
	10.570000	-1.575972
	10.575000	-1.621099
	10.580000	-1.543738
	10.585000	-1.498611
	10.590000	-1.579195
	10.595000	-1.617875
	10.600000	-1.550185
	10.605000	-1.498611
	10.610000	-1.575972
	10.615000	-1.621099
	10.620000	-1.543738
	10.625000	-1.505058
	10.630000	-1.582418
	10.635000	-1.621099
	10.640000	-1.540515
	10.645000	-1.495388
	10.650000	-1.579195
	10.655000	-1.624322
	10.660000	-1.537291
	10.665000	-1.501835
	10.670000	-1.582418
	10.675000	-1.621099
	10.680000	-1.540515
	10.685000	-1.501835
	10.690000	-1.585642
	10.695000	-1.630769
	10.700000	-1.550185
	10.705000	-1.498611
	10.710000	-1.582418
	10.715000	-1.624322
	10.720000	-1.543738
	10.725000	-1.498611
	10.730000	-1.585642
	10.735000	-1.624322
	10.740000	-1.537291
	10.745000	-1.495388
	10.750000	-1.582418
	10.755000	-1.624322
	10.760000	-1.543738
	10.765000	-1.495388
	10.770000	-1.575972
	10.775000	-1.630769
	10.780000	-1.546962
	10.785000	-1.505058
	10.790000	-1.585642
	10.795000	-1.630769
	10.800000	-1.546962
	10.805000	-1.495388
	10.810000	-1.588865
	10.815000	-1.624322
	10.820000	-1.546962
	10.825000	-1.501835
	10.830000	-1.585642
	10.835000	-1.627546
	10.840000	-1.543738
	10.845000	-1.501835
	10.850000	-1.588865
	10.855000	-1.630769
	10.860000	-1.550185
	10.865000	-1.508281
	10.870000	-1.585642
	10.875000	-1.630769
	10.880000	-1.550185
	10.885000	-1.508281
	10.890000	-1.588865
	10.895000	-1.633992
	10.900000	-1.553408
	10.905000	-1.514728
	10.910000	-1.598535
	10.915000	-1.637216
	10.920000	-1.553408
	10.925000	-1.511505
	10.930000	-1.595312
	10.935000	-1.637216
	10.940000	-1.553408
	10.945000	-1.517951
	10.950000	-1.592089
	10.955000	-1.627546
	10.960000	-1.556632
	10.965000	-1.505058
	10.970000	-1.585642
	10.975000	-1.630769
	10.980000	-1.546962
	10.985000	-1.514728
	10.990000	-1.588865
	10.995000	-1.637216
	11.000000	-1.556632
	11.005000	-1.511505
	11.010000	-1.595312
	11.015000	-1.637216
	11.020000	-1.559855
	11.025000	-1.514728
	11.030000	-1.592089
	11.035000	-1.640439
	11.040000	-1.550185
	11.045000	-1.508281
	11.050000	-1.588865
	11.055000	-1.630769
	11.060000	-1.543738
	11.065000	-1.498611
	11.070000	-1.582418
	11.075000	-1.627546
	11.080000	-1.540515
	11.085000	-1.508281
	11.090000	-1.582418
	11.095000	-1.624322
	11.100000	-1.546962
	11.105000	-1.498611
	11.110000	-1.585642
	11.115000	-1.617875
	11.120000	-1.540515
	11.125000	-1.495388
	11.130000	-1.575972
	11.135000	-1.614652
	11.140000	-1.534068
	11.145000	-1.495388
	11.150000	-1.575972
	11.155000	-1.624322
	11.160000	-1.530845
	11.165000	-1.488941
	11.170000	-1.575972
	11.175000	-1.617875
	11.180000	-1.530845
	11.185000	-1.492164
	11.190000	-1.569525
	11.195000	-1.617875
	11.200000	-1.537291
	11.205000	-1.492164
	11.210000	-1.575972
	11.215000	-1.611429
	11.220000	-1.534068
	11.225000	-1.492164
	11.230000	-1.569525
	11.235000	-1.611429
	11.240000	-1.534068
	11.245000	-1.495388
	11.250000	-1.569525
	11.255000	-1.617875
	11.260000	-1.534068
	11.265000	-1.488941
	11.270000	-1.572748
	11.275000	-1.624322
	11.280000	-1.530845
	11.285000	-1.495388
	11.290000	-1.572748
	11.295000	-1.621099
	11.300000	-1.540515
	11.305000	-1.495388
	11.310000	-1.579195
	11.315000	-1.621099
	11.320000	-1.543738
	11.325000	-1.495388
	11.330000	-1.575972
	11.335000	-1.621099
	11.340000	-1.537291
	11.345000	-1.501835
	11.350000	-1.579195
	11.355000	-1.624322
	11.360000	-1.534068
	11.365000	-1.495388
	11.370000	-1.585642
	11.375000	-1.627546
	11.380000	-1.537291
	11.385000	-1.495388
	11.390000	-1.572748
	11.395000	-1.617875
	11.400000	-1.543738
	11.405000	-1.498611
	11.410000	-1.579195
	11.415000	-1.624322
	11.420000	-1.540515
	11.425000	-1.501835
	11.430000	-1.588865
	11.435000	-1.624322
	11.440000	-1.540515
	11.445000	-1.495388
	11.450000	-1.585642
	11.455000	-1.621099
	11.460000	-1.546962
	11.465000	-1.505058
	11.470000	-1.595312
	11.475000	-1.630769
	11.480000	-1.550185
	11.485000	-1.505058
	11.490000	-1.572748
	11.495000	-1.595312
	11.500000	-1.482494
	11.505000	-1.408357
	11.510000	-1.459931
	11.515000	-1.472824
	11.520000	-1.369677
	11.525000	-1.289093
	11.530000	-1.350337
	11.535000	-1.369677
	11.540000	-1.272976
	11.545000	-1.221402
	11.550000	-1.289093
	11.555000	-1.321326
	11.560000	-1.227849
	11.565000	-1.176275
	11.570000	-1.250413
	11.575000	-1.285869
	11.580000	-1.205285
	11.585000	-1.156935
	11.590000	-1.218179
	11.595000	-1.250413
	11.600000	-1.173052
	11.605000	-1.121478
	11.610000	-1.198839
	11.615000	-1.231072
	11.620000	-1.150488
	11.625000	-1.105361
	11.630000	-1.173052
	11.635000	-1.211732
	11.640000	-1.127925
	11.645000	-1.082798
	11.650000	-1.163382
	11.655000	-1.192392
	11.660000	-1.111808
	11.665000	-1.073128
	11.670000	-1.144042
	11.675000	-1.176275
	11.680000	-1.102138
	11.685000	-1.063458
	11.690000	-1.131148
	11.695000	-1.166605
	11.700000	-1.095691
	11.705000	-1.050564
	11.710000	-1.127925
	11.715000	-1.156935
	11.720000	-1.089245
	11.725000	-1.044118
	11.730000	-1.124702
	11.735000	-1.153712
	11.740000	-1.082798
	11.745000	-1.040894
	11.750000	-1.111808
	11.755000	-1.144042
	11.760000	-1.073128
	11.765000	-1.037671
	11.770000	-1.111808
	11.775000	-1.147265
	11.780000	-1.057011
	11.785000	-1.028001
	11.790000	-1.098915
	11.795000	-1.137595
	11.800000	-1.060234
	11.805000	-1.028001
	11.810000	-1.108585
	11.815000	-1.137595
	11.820000	-1.066681
	11.825000	-1.024777
	11.830000	-1.102138
	11.835000	-1.134372
	11.840000	-1.069904
	11.845000	-1.028001
	11.850000	-1.105361
	11.855000	-1.137595
	11.860000	-1.060234
	11.865000	-1.028001
	11.870000	-1.098915
	11.875000	-1.131148
	11.880000	-1.066681
	11.885000	-1.031224
	11.890000	-1.105361
	11.895000	-1.140818
	11.900000	-1.066681
	11.905000	-1.024777
	11.910000	-1.105361
	11.915000	-1.144042
	11.920000	-1.073128
	11.925000	-1.040894
	11.930000	-1.108585
	11.935000	-1.147265
	11.940000	-1.069904
	11.945000	-1.031224
	11.950000	-1.108585
	11.955000	-1.147265
	11.960000	-1.079574
	11.965000	-1.050564
	11.970000	-1.118255
	11.975000	-1.156935
	11.980000	-1.089245
	11.985000	-1.047341
	11.990000	-1.121478
	11.995000	-1.160158
	12.000000	-1.095691
	12.005000	-1.060234
	12.010000	-1.144042
	12.015000	-1.179499
	12.020000	-1.111808
	12.025000	-1.079574
	12.030000	-1.160158
	12.035000	-1.198839
	12.040000	-1.134372
	12.045000	-1.105361
	12.050000	-1.189169
	12.055000	-1.237519
	12.060000	-1.185945
	12.065000	-1.156935
	12.070000	-1.253636
	12.075000	-1.308433
	12.080000	-1.243966
	12.085000	-1.221402
	12.090000	-1.311656
	12.095000	-1.376124
	12.100000	-1.311656
	12.105000	-1.298763
	12.110000	-1.392240
	12.115000	-1.450261
	12.120000	-1.389017
	12.125000	-1.366453
	12.130000	-1.453484
	12.135000	-1.508281
	12.140000	-1.450261
	12.145000	-1.430921
	12.150000	-1.521175
	12.155000	-1.556632
	12.160000	-1.492164
	12.165000	-1.469601
	12.170000	-1.546962
	12.175000	-1.601759
	12.180000	-1.527621
	12.185000	-1.505058
	12.190000	-1.595312
	12.195000	-1.637216
	12.200000	-1.563078
	12.205000	-1.527621
	12.210000	-1.614652
	12.215000	-1.659779
	12.220000	-1.585642
	12.225000	-1.556632
	12.230000	-1.633992
	12.235000	-1.679119
	12.240000	-1.604982
	12.245000	-1.566302
	12.250000	-1.653332
	12.255000	-1.698459
	12.260000	-1.617875
	12.265000	-1.585642
	12.270000	-1.666226
	12.275000	-1.708129
	12.280000	-1.637216
	12.285000	-1.592089
	12.290000	-1.675896
	12.295000	-1.714576
	12.300000	-1.633992
	12.305000	-1.598535
	12.310000	-1.679119
	12.315000	-1.721023
	12.320000	-1.637216
	12.325000	-1.604982
	12.330000	-1.688789
	12.335000	-1.730693
	12.340000	-1.640439
	12.345000	-1.604982
	12.350000	-1.685566
	12.355000	-1.727470
	12.360000	-1.643662
	12.365000	-1.604982
	12.370000	-1.695236
	12.375000	-1.727470
	12.380000	-1.640439
	12.385000	-1.601759
	12.390000	-1.688789
	12.395000	-1.724246
	12.400000	-1.650109
	12.405000	-1.608205
	12.410000	-1.679119
	12.415000	-1.721023
	12.420000	-1.643662
	12.425000	-1.595312
	12.430000	-1.675896
	12.435000	-1.714576
	12.440000	-1.637216
	12.445000	-1.592089
	12.450000	-1.672673
	12.455000	-1.704906
	12.460000	-1.630769
	12.465000	-1.592089
	12.470000	-1.666226
	12.475000	-1.704906
	12.480000	-1.621099
	12.485000	-1.579195
	12.490000	-1.663002
	12.495000	-1.698459
	12.500000	-1.617875
	12.505000	-1.579195
	12.510000	-1.659779
	12.515000	-1.695236
	12.520000	-1.614652
	12.525000	-1.572748
	12.530000	-1.643662
	12.535000	-1.692013
	12.540000	-1.608205
	12.545000	-1.566302
	12.550000	-1.656556
	12.555000	-1.688789
	12.560000	-1.611429
	12.565000	-1.569525
	12.570000	-1.653332
	12.575000	-1.685566
	12.580000	-1.608205
	12.585000	-1.566302
	12.590000	-1.646886
	12.595000	-1.682343
	12.600000	-1.604982
	12.605000	-1.566302
	12.610000	-1.640439
	12.615000	-1.682343
	12.620000	-1.598535
	12.625000	-1.566302
	12.630000	-1.637216
	12.635000	-1.679119
	12.640000	-1.598535
	12.645000	-1.553408
	12.650000	-1.633992
	12.655000	-1.682343
	12.660000	-1.608205
	12.665000	-1.556632
	12.670000	-1.637216
	12.675000	-1.672673
	12.680000	-1.601759
	12.685000	-1.556632
	12.690000	-1.637216
	12.695000	-1.675896
	12.700000	-1.595312
	12.705000	-1.553408
	12.710000	-1.643662
	12.715000	-1.669449
	12.720000	-1.585642
	12.725000	-1.553408
	12.730000	-1.637216
	12.735000	-1.672673
	12.740000	-1.588865
	12.745000	-1.556632
	12.750000	-1.633992
	12.755000	-1.672673
	12.760000	-1.588865
	12.765000	-1.550185
	12.770000	-1.637216
	12.775000	-1.672673
	12.780000	-1.585642
	12.785000	-1.553408
	12.790000	-1.630769
	12.795000	-1.675896
	12.800000	-1.595312
	12.805000	-1.550185
	12.810000	-1.633992
	12.815000	-1.672673
	12.820000	-1.588865
	12.825000	-1.546962
	12.830000	-1.624322
	12.835000	-1.672673
	12.840000	-1.585642
	12.845000	-1.546962
	12.850000	-1.630769
	12.855000	-1.669449
	12.860000	-1.585642
	12.865000	-1.556632
	12.870000	-1.624322
	12.875000	-1.666226
	12.880000	-1.582418
	12.885000	-1.546962
	12.890000	-1.627546
	12.895000	-1.666226
	12.900000	-1.579195
	12.905000	-1.543738
	12.910000	-1.614652
	12.915000	-1.659779
	12.920000	-1.582418
	12.925000	-1.534068
	12.930000	-1.617875
	12.935000	-1.656556
	12.940000	-1.582418
	12.945000	-1.540515
	12.950000	-1.617875
	12.955000	-1.653332
	12.960000	-1.566302
	12.965000	-1.527621
	12.970000	-1.608205
	12.975000	-1.646886
	12.980000	-1.559855
	12.985000	-1.521175
	12.990000	-1.598535
	12.995000	-1.637216
	13.000000	-1.563078
	13.005000	-1.514728
	13.010000	-1.601759
	13.015000	-1.637216
	13.020000	-1.556632
	13.025000	-1.514728
	13.030000	-1.598535
	13.035000	-1.633992
	13.040000	-1.553408
	13.045000	-1.508281
	13.050000	-1.595312
	13.055000	-1.637216
	13.060000	-1.553408
	13.065000	-1.508281
	13.070000	-1.592089
	13.075000	-1.637216
	13.080000	-1.550185
	13.085000	-1.508281
	13.090000	-1.592089
	13.095000	-1.633992
	13.100000	-1.553408
	13.105000	-1.511505
	13.110000	-1.598535
	13.115000	-1.637216
	13.120000	-1.553408
	13.125000	-1.508281
	13.130000	-1.595312
	13.135000	-1.637216
	13.140000	-1.553408
	13.145000	-1.508281
	13.150000	-1.598535
	13.155000	-1.640439
	13.160000	-1.556632
	13.165000	-1.524398
	13.170000	-1.598535
	13.175000	-1.630769
	13.180000	-1.553408
	13.185000	-1.527621
	13.190000	-1.604982
	13.195000	-1.646886
	13.200000	-1.563078
	13.205000	-1.530845
	13.210000	-1.604982
	13.215000	-1.643662
	13.220000	-1.566302
	13.225000	-1.530845
	13.230000	-1.617875
	13.235000	-1.656556
	13.240000	-1.569525
	13.245000	-1.524398
	13.250000	-1.624322
	13.255000	-1.656556
	13.260000	-1.572748
	13.265000	-1.540515
	13.270000	-1.630769
	13.275000	-1.663002
	13.280000	-1.588865
	13.285000	-1.546962
	13.290000	-1.624322
	13.295000	-1.659779
	13.300000	-1.585642
	13.305000	-1.546962
	13.310000	-1.633992
	13.315000	-1.672673
	13.320000	-1.592089
	13.325000	-1.556632
	13.330000	-1.637216
	13.335000	-1.672673
	13.340000	-1.585642
	13.345000	-1.553408
	13.350000	-1.643662
	13.355000	-1.682343
	13.360000	-1.608205
	13.365000	-1.559855
	13.370000	-1.653332
	13.375000	-1.685566
	13.380000	-1.601759
	13.385000	-1.563078
	13.390000	-1.640439
	13.395000	-1.688789
	13.400000	-1.604982
	13.405000	-1.569525
	13.410000	-1.646886
	13.415000	-1.685566
	13.420000	-1.611429
	13.425000	-1.569525
	13.430000	-1.656556
	13.435000	-1.695236
	13.440000	-1.617875
	13.445000	-1.579195
	13.450000	-1.656556
	13.455000	-1.698459
	13.460000	-1.617875
	13.465000	-1.572748
	13.470000	-1.656556
	13.475000	-1.695236
	13.480000	-1.617875
	13.485000	-1.579195
	13.490000	-1.659779
	13.495000	-1.695236
	13.500000	-1.614652
	13.505000	-1.579195
	13.510000	-1.663002
	13.515000	-1.708129
	13.520000	-1.614652
	13.525000	-1.585642
	13.530000	-1.666226
	13.535000	-1.698459
	13.540000	-1.617875
	13.545000	-1.585642
	13.550000	-1.666226
	13.555000	-1.701683
	13.560000	-1.617875
	13.565000	-1.585642
	13.570000	-1.666226
	13.575000	-1.701683
	13.580000	-1.621099
	13.585000	-1.579195
	13.590000	-1.666226
	13.595000	-1.701683
	13.600000	-1.611429
	13.605000	-1.588865
	13.610000	-1.663002
	13.615000	-1.698459
	13.620000	-1.617875
	13.625000	-1.572748
	13.630000	-1.659779
	13.635000	-1.698459
	13.640000	-1.617875
	13.645000	-1.582418
	13.650000	-1.663002
	13.655000	-1.695236
	13.660000	-1.614652
	13.665000	-1.582418
	13.670000	-1.659779
	13.675000	-1.701683
	13.680000	-1.621099
	13.685000	-1.582418
	13.690000	-1.663002
	13.695000	-1.704906
	13.700000	-1.611429
	13.705000	-1.572748
	13.710000	-1.669449
	13.715000	-1.704906
	13.720000	-1.621099
	13.725000	-1.575972
	13.730000	-1.663002
	13.735000	-1.698459
	13.740000	-1.611429
	13.745000	-1.572748
	13.750000	-1.656556
	13.755000	-1.688789
	13.760000	-1.608205
	13.765000	-1.569525
	13.770000	-1.659779
	13.775000	-1.698459
	13.780000	-1.601759
	13.785000	-1.572748
	13.790000	-1.650109
	13.795000	-1.695236
	13.800000	-1.608205
	13.805000	-1.566302
	13.810000	-1.653332
	13.815000	-1.685566
	13.820000	-1.598535
	13.825000	-1.559855
	13.830000	-1.643662
	13.835000	-1.685566
	13.840000	-1.601759
	13.845000	-1.556632
	13.850000	-1.637216
	13.855000	-1.675896
	13.860000	-1.598535
	13.865000	-1.563078
	13.870000	-1.643662
	13.875000	-1.682343
	13.880000	-1.592089
	13.885000	-1.553408
	13.890000	-1.640439
	13.895000	-1.675896
	13.900000	-1.598535
	13.905000	-1.556632
	13.910000	-1.637216
	13.915000	-1.679119
	13.920000	-1.595312
	13.925000	-1.556632
	13.930000	-1.630769
	13.935000	-1.669449
	13.940000	-1.585642
	13.945000	-1.553408
	13.950000	-1.630769
	13.955000	-1.672673
	13.960000	-1.585642
	13.965000	-1.553408
	13.970000	-1.633992
	13.975000	-1.669449
	13.980000	-1.579195
	13.985000	-1.550185
	13.990000	-1.627546
	13.995000	-1.672673
	14.000000	-1.592089
	14.005000	-1.550185
	14.010000	-1.633992
	14.015000	-1.672673
	14.020000	-1.592089
	14.025000	-1.553408
	14.030000	-1.630769
	14.035000	-1.669449
	14.040000	-1.595312
	14.045000	-1.550185
	14.050000	-1.627546
	14.055000	-1.666226
	14.060000	-1.582418
	14.065000	-1.553408
	14.070000	-1.640439
	14.075000	-1.669449
	14.080000	-1.585642
	14.085000	-1.556632
	14.090000	-1.630769
	14.095000	-1.675896
	14.100000	-1.592089
	14.105000	-1.559855
	14.110000	-1.640439
	14.115000	-1.672673
	14.120000	-1.582418
	14.125000	-1.553408
	14.130000	-1.637216
	14.135000	-1.675896
	14.140000	-1.585642
	14.145000	-1.559855
	14.150000	-1.640439
	14.155000	-1.675896
	14.160000	-1.595312
	14.165000	-1.556632
	14.170000	-1.640439
	14.175000	-1.672673
	14.180000	-1.595312
	14.185000	-1.556632
	14.190000	-1.630769
	14.195000	-1.675896
	14.200000	-1.592089
	14.205000	-1.556632
	14.210000	-1.637216
	14.215000	-1.679119
	14.220000	-1.592089
	14.225000	-1.556632
	14.230000	-1.633992
	14.235000	-1.675896
	14.240000	-1.592089
	14.245000	-1.559855
	14.250000	-1.640439
	14.255000	-1.679119
	14.260000	-1.598535
	14.265000	-1.559855
	14.270000	-1.643662
	14.275000	-1.682343
	14.280000	-1.595312
	14.285000	-1.556632
	14.290000	-1.650109
	14.295000	-1.682343
	14.300000	-1.601759
	14.305000	-1.559855
	14.310000	-1.646886
	14.315000	-1.685566
	14.320000	-1.598535
	14.325000	-1.559855
	14.330000	-1.646886
	14.335000	-1.682343
	14.340000	-1.598535
	14.345000	-1.566302
	14.350000	-1.646886
	14.355000	-1.688789
	14.360000	-1.604982
	14.365000	-1.566302
	14.370000	-1.643662
	14.375000	-1.679119
	14.380000	-1.598535
	14.385000	-1.563078
	14.390000	-1.643662
	14.395000	-1.682343
	14.400000	-1.604982
	14.405000	-1.566302
	14.410000	-1.646886
	14.415000	-1.682343
	14.420000	-1.598535
	14.425000	-1.563078
	14.430000	-1.646886
	14.435000	-1.682343
	14.440000	-1.592089
	14.445000	-1.563078
	14.450000	-1.640439
	14.455000	-1.682343
	14.460000	-1.598535
	14.465000	-1.559855
	14.470000	-1.650109
	14.475000	-1.679119
	14.480000	-1.601759
	14.485000	-1.569525
	14.490000	-1.646886
	14.495000	-1.685566
	14.500000	-1.598535
	14.505000	-1.553408
	14.510000	-1.643662
	14.515000	-1.685566
	14.520000	-1.598535
	14.525000	-1.563078
	14.530000	-1.646886
	14.535000	-1.682343
	14.540000	-1.604982
	14.545000	-1.559855
	14.550000	-1.646886
	14.555000	-1.675896
	14.560000	-1.595312
	14.565000	-1.569525
	14.570000	-1.643662
	14.575000	-1.685566
	14.580000	-1.601759
	14.585000	-1.556632
	14.590000	-1.646886
	14.595000	-1.685566
	14.600000	-1.595312
	14.605000	-1.566302
	14.610000	-1.653332
	14.615000	-1.679119
	14.620000	-1.611429
	14.625000	-1.569525
	14.630000	-1.650109
	14.635000	-1.688789
	14.640000	-1.598535
	14.645000	-1.566302
	14.650000	-1.653332
	14.655000	-1.682343
	14.660000	-1.611429
	14.665000	-1.569525
	14.670000	-1.653332
	14.675000	-1.695236
	14.680000	-1.604982
	14.685000	-1.575972
	14.690000	-1.650109
	14.695000	-1.698459
	14.700000	-1.611429
	14.705000	-1.572748
	14.710000	-1.653332
	14.715000	-1.698459
	14.720000	-1.611429
	14.725000	-1.569525
	14.730000	-1.659779
	14.735000	-1.695236
	14.740000	-1.608205
	14.745000	-1.572748
	14.750000	-1.659779
	14.755000	-1.695236
	14.760000	-1.608205
	14.765000	-1.572748
	14.770000	-1.646886
	14.775000	-1.695236
	14.780000	-1.614652
	14.785000	-1.572748
	14.790000	-1.656556
	14.795000	-1.698459
	14.800000	-1.611429
	14.805000	-1.572748
	14.810000	-1.659779
	14.815000	-1.695236
	14.820000	-1.614652
	14.825000	-1.579195
	14.830000	-1.659779
	14.835000	-1.698459
	14.840000	-1.611429
	14.845000	-1.575972
	14.850000	-1.659779
	14.855000	-1.698459
	14.860000	-1.608205
	14.865000	-1.572748
	14.870000	-1.669449
	14.875000	-1.695236
	14.880000	-1.611429
	14.885000	-1.569525
	14.890000	-1.666226
	14.895000	-1.688789
	14.900000	-1.611429
	14.905000	-1.572748
	14.910000	-1.659779
	14.915000	-1.698459
	14.920000	-1.614652
	14.925000	-1.582418
	14.930000	-1.653332
	14.935000	-1.695236
	14.940000	-1.611429
	14.945000	-1.572748
	14.950000	-1.659779
	14.955000	-1.701683
	14.960000	-1.621099
	14.965000	-1.579195
	14.970000	-1.659779
	14.975000	-1.701683
	14.980000	-1.614652
	14.985000	-1.579195
	14.990000	-1.659779
	14.995000	-1.708129
	15.000000	-1.621099
	15.005000	-1.572748
	15.010000	-1.659779
	15.015000	-1.701683
	15.020000	-1.621099
	15.025000	-1.575972
	15.030000	-1.659779
	15.035000	-1.698459
	15.040000	-1.614652
	15.045000	-1.572748
	15.050000	-1.659779
	15.055000	-1.695236
	15.060000	-1.624322
	15.065000	-1.575972
	15.070000	-1.663002
	15.075000	-1.695236
	15.080000	-1.617875
	15.085000	-1.575972
	15.090000	-1.666226
	15.095000	-1.695236
	15.100000	-1.617875
	15.105000	-1.585642
	15.110000	-1.659779
	15.115000	-1.698459
	15.120000	-1.621099
	15.125000	-1.579195
	15.130000	-1.656556
	15.135000	-1.701683
	15.140000	-1.617875
	15.145000	-1.572748
	15.150000	-1.666226
	15.155000	-1.704906
	15.160000	-1.614652
	15.165000	-1.585642
	15.170000	-1.663002
	15.175000	-1.701683
	15.180000	-1.614652
	15.185000	-1.579195
	15.190000	-1.663002
	15.195000	-1.701683
	15.200000	-1.614652
	15.205000	-1.579195
	15.210000	-1.669449
	15.215000	-1.701683
	15.220000	-1.617875
	15.225000	-1.579195
	15.230000	-1.669449
	15.235000	-1.698459
	15.240000	-1.621099
	15.245000	-1.579195
	15.250000	-1.659779
	15.255000	-1.695236
	15.260000	-1.614652
	15.265000	-1.572748
	15.270000	-1.663002
	15.275000	-1.708129
	15.280000	-1.614652
	15.285000	-1.575972
	15.290000	-1.663002
	15.295000	-1.695236
	15.300000	-1.617875
	15.305000	-1.572748
	15.310000	-1.666226
	15.315000	-1.701683
	15.320000	-1.617875
	15.325000	-1.579195
	15.330000	-1.672673
	15.335000	-1.708129
	15.340000	-1.624322
	15.345000	-1.582418
	15.350000	-1.669449
	15.355000	-1.708129
	15.360000	-1.627546
	15.365000	-1.585642
	15.370000	-1.675896
	15.375000	-1.704906
	15.380000	-1.627546
	15.385000	-1.592089
	15.390000	-1.672673
	15.395000	-1.714576
	15.400000	-1.624322
	15.405000	-1.592089
	15.410000	-1.669449
	15.415000	-1.714576
	15.420000	-1.630769
	15.425000	-1.585642
	15.430000	-1.675896
	15.435000	-1.708129
	15.440000	-1.621099
	15.445000	-1.592089
	15.450000	-1.675896
	15.455000	-1.711353
	15.460000	-1.624322
	15.465000	-1.592089
	15.470000	-1.669449
	15.475000	-1.714576
	15.480000	-1.627546
	15.485000	-1.592089
	15.490000	-1.669449
	15.495000	-1.711353
	15.500000	-1.621099
	15.505000	-1.592089
	15.510000	-1.672673
	15.515000	-1.714576
	15.520000	-1.630769
	15.525000	-1.592089
	15.530000	-1.669449
	15.535000	-1.711353
	15.540000	-1.621099
	15.545000	-1.592089
	15.550000	-1.675896
	15.555000	-1.711353
	15.560000	-1.621099
	15.565000	-1.585642
	15.570000	-1.669449
	15.575000	-1.708129
	15.580000	-1.627546
	15.585000	-1.588865
	15.590000	-1.669449
	15.595000	-1.711353
	15.600000	-1.624322
	15.605000	-1.582418
	15.610000	-1.669449
	15.615000	-1.714576
	15.620000	-1.621099
	15.625000	-1.592089
	15.630000	-1.672673
	15.635000	-1.704906
	15.640000	-1.621099
	15.645000	-1.582418
	15.650000	-1.666226
	15.655000	-1.711353
	15.660000	-1.624322
	15.665000	-1.579195
	15.670000	-1.666226
	15.675000	-1.711353
	15.680000	-1.624322
	15.685000	-1.579195
	15.690000	-1.666226
	15.695000	-1.704906
	15.700000	-1.614652
	15.705000	-1.579195
	15.710000	-1.663002
	15.715000	-1.701683
	15.720000	-1.611429
	15.725000	-1.579195
	15.730000	-1.669449
	15.735000	-1.698459
	15.740000	-1.617875
	15.745000	-1.572748
	15.750000	-1.666226
	15.755000	-1.695236
	15.760000	-1.611429
	15.765000	-1.572748
	15.770000	-1.659779
	15.775000	-1.701683
	15.780000	-1.604982
	15.785000	-1.566302
	15.790000	-1.653332
	15.795000	-1.692013
	15.800000	-1.601759
	15.805000	-1.569525
	15.810000	-1.656556
	15.815000	-1.695236
	15.820000	-1.604982
	15.825000	-1.563078
	15.830000	-1.646886
	15.835000	-1.695236
	15.840000	-1.604982
	15.845000	-1.563078
	15.850000	-1.643662
	15.855000	-1.688789
	15.860000	-1.608205
	15.865000	-1.566302
	15.870000	-1.643662
	15.875000	-1.688789
	15.880000	-1.601759
	15.885000	-1.563078
	15.890000	-1.643662
	15.895000	-1.688789
	15.900000	-1.601759
	15.905000	-1.563078
	15.910000	-1.650109
	15.915000	-1.695236
	15.920000	-1.598535
	15.925000	-1.559855
	15.930000	-1.646886
	15.935000	-1.688789
	15.940000	-1.608205
	15.945000	-1.563078
	15.950000	-1.650109
	15.955000	-1.688789
	15.960000	-1.608205
	15.965000	-1.569525
	15.970000	-1.663002
	15.975000	-1.698459
	15.980000	-1.614652
	15.985000	-1.575972
	15.990000	-1.663002
	15.995000	-1.701683
	16.000000	-1.614652
	16.005000	-1.582418
	16.010000	-1.666226
	16.015000	-1.701683
	16.020000	-1.617875
	16.025000	-1.575972
	16.030000	-1.659779
	16.035000	-1.701683
	16.040000	-1.617875
	16.045000	-1.585642
	16.050000	-1.663002
	16.055000	-1.704906
	16.060000	-1.617875
	16.065000	-1.579195
	16.070000	-1.666226
	16.075000	-1.701683
	16.080000	-1.624322
	16.085000	-1.585642
	16.090000	-1.666226
	16.095000	-1.704906
	16.100000	-1.624322
	16.105000	-1.582418
	16.110000	-1.656556
	16.115000	-1.698459
	16.120000	-1.611429
	16.125000	-1.563078
	16.130000	-1.627546
	16.135000	-1.633992
	16.140000	-1.521175
	16.145000	-1.440591
	16.150000	-1.495388
	16.155000	-1.495388
	16.160000	-1.392240
	16.165000	-1.327773
	16.170000	-1.389017
	16.175000	-1.405134
	16.180000	-1.308433
	16.185000	-1.260083
	16.190000	-1.330996
	16.195000	-1.360007
	16.200000	-1.272976
	16.205000	-1.231072
	16.210000	-1.305210
	16.215000	-1.337443
	16.220000	-1.237519
	16.225000	-1.202062
	16.230000	-1.276199
	16.235000	-1.308433
	16.240000	-1.221402
	16.245000	-1.173052
	16.250000	-1.240742
	16.255000	-1.282646
	16.260000	-1.198839
	16.265000	-1.150488
	16.270000	-1.231072
	16.275000	-1.260083
	16.280000	-1.182722
	16.285000	-1.144042
	16.290000	-1.218179
	16.295000	-1.247189
	16.300000	-1.166605
	16.305000	-1.127925
	16.310000	-1.205285
	16.315000	-1.240742
	16.320000	-1.160158
	16.325000	-1.131148
	16.330000	-1.205285
	16.335000	-1.237519
	16.340000	-1.166605
	16.345000	-1.134372
	16.350000	-1.208509
	16.355000	-1.250413
	16.360000	-1.179499
	16.365000	-1.147265
	16.370000	-1.221402
	16.375000	-1.260083
	16.380000	-1.192392
	16.385000	-1.156935
	16.390000	-1.237519
	16.395000	-1.272976
	16.400000	-1.195615
	16.405000	-1.163382
	16.410000	-1.247189
	16.415000	-1.282646
	16.420000	-1.205285
	16.425000	-1.166605
	16.430000	-1.243966
	16.435000	-1.276199
	16.440000	-1.202062
	16.445000	-1.166605
	16.450000	-1.243966
	16.455000	-1.276199
	16.460000	-1.205285
	16.465000	-1.173052
	16.470000	-1.240742
	16.475000	-1.266529
	16.480000	-1.195615
	16.485000	-1.160158
	16.490000	-1.240742
	16.495000	-1.266529
	16.500000	-1.195615
	16.505000	-1.163382
	16.510000	-1.237519
	16.515000	-1.266529
	16.520000	-1.195615
	16.525000	-1.160158
	16.530000	-1.231072
	16.535000	-1.266529
	16.540000	-1.192392
	16.545000	-1.160158
	16.550000	-1.231072
	16.555000	-1.269753
	16.560000	-1.198839
	16.565000	-1.163382
	16.570000	-1.234296
	16.575000	-1.279423
	16.580000	-1.198839
	16.585000	-1.166605
	16.590000	-1.231072
	16.595000	-1.266529
	16.600000	-1.202062
	16.605000	-1.169829
	16.610000	-1.231072
	16.615000	-1.266529
	16.620000	-1.189169
	16.625000	-1.166605
	16.630000	-1.227849
	16.635000	-1.266529
	16.640000	-1.195615
	16.645000	-1.163382
	16.650000	-1.231072
	16.655000	-1.276199
	16.660000	-1.192392
	16.665000	-1.160158
	16.670000	-1.224626
	16.675000	-1.269753
	16.680000	-1.192392
	16.685000	-1.156935
	16.690000	-1.240742
	16.695000	-1.272976
	16.700000	-1.205285
	16.705000	-1.166605
	16.710000	-1.237519
	16.715000	-1.276199
	16.720000	-1.208509
	16.725000	-1.176275
	16.730000	-1.256859
	16.735000	-1.305210
	16.740000	-1.240742
	16.745000	-1.218179
	16.750000	-1.308433
	16.755000	-1.356783
	16.760000	-1.305210
	16.765000	-1.282646
	16.770000	-1.379347
	16.775000	-1.427697
	16.780000	-1.376124
	16.785000	-1.356783
	16.790000	-1.450261
	16.795000	-1.501835
	16.800000	-1.447037
	16.805000	-1.424474
	16.810000	-1.521175
	16.815000	-1.569525
	16.820000	-1.498611
	16.825000	-1.472824
	16.830000	-1.569525
	16.835000	-1.614652
	16.840000	-1.540515
	16.845000	-1.530845
	16.850000	-1.604982
	16.855000	-1.656556
	16.860000	-1.579195
	16.865000	-1.546962
	16.870000	-1.637216
	16.875000	-1.669449
	16.880000	-1.598535
	16.885000	-1.572748
	16.890000	-1.653332
	16.895000	-1.692013
	16.900000	-1.624322
	16.905000	-1.585642
	16.910000	-1.669449
	16.915000	-1.711353
	16.920000	-1.637216
	16.925000	-1.608205
	16.930000	-1.692013
	16.935000	-1.740363
	16.940000	-1.663002
	16.945000	-1.630769
	16.950000	-1.711353
	16.955000	-1.750033
	16.960000	-1.675896
	16.965000	-1.646886
	16.970000	-1.721023
	16.975000	-1.759703
	16.980000	-1.688789
	16.985000	-1.653332
	16.990000	-1.730693
	16.995000	-1.762927
	17.000000	-1.679119
	17.005000	-1.643662
	17.010000	-1.724246
	17.015000	-1.766150
	17.020000	-1.685566
	17.025000	-1.646886
	17.030000	-1.727470
	17.035000	-1.766150
	17.040000	-1.682343
	17.045000	-1.640439
	17.050000	-1.727470
	17.055000	-1.766150
	17.060000	-1.672673
	17.065000	-1.640439
	17.070000	-1.724246
	17.075000	-1.756480
	17.080000	-1.679119
	17.085000	-1.633992
	17.090000	-1.717800
	17.095000	-1.753257
	17.100000	-1.672673
	17.105000	-1.630769
	17.110000	-1.714576
	17.115000	-1.756480
	17.120000	-1.675896
	17.125000	-1.637216
	17.130000	-1.714576
	17.135000	-1.753257
	17.140000	-1.666226
	17.145000	-1.633992
	17.150000	-1.714576
	17.155000	-1.750033
	17.160000	-1.672673
	17.165000	-1.637216
	17.170000	-1.711353
	17.175000	-1.753257
	17.180000	-1.669449
	17.185000	-1.637216
	17.190000	-1.708129
	17.195000	-1.753257
	17.200000	-1.672673
	17.205000	-1.627546
	17.210000	-1.708129
	17.215000	-1.753257
	17.220000	-1.669449
	17.225000	-1.633992
	17.230000	-1.714576
	17.235000	-1.750033
	17.240000	-1.669449
	17.245000	-1.633992
	17.250000	-1.721023
	17.255000	-1.759703
	17.260000	-1.666226
	17.265000	-1.637216
	17.270000	-1.721023
	17.275000	-1.762927
	17.280000	-1.675896
	17.285000	-1.640439
	17.290000	-1.724246
	17.295000	-1.762927
	17.300000	-1.669449
	17.305000	-1.637216
	17.310000	-1.724246
	17.315000	-1.759703
	17.320000	-1.672673
	17.325000	-1.637216
	17.330000	-1.721023
	17.335000	-1.759703
	17.340000	-1.675896
	17.345000	-1.640439
	17.350000	-1.724246
	17.355000	-1.753257
	17.360000	-1.685566
	17.365000	-1.640439
	17.370000	-1.727470
	17.375000	-1.759703
	17.380000	-1.679119
	17.385000	-1.646886
	17.390000	-1.714576
	17.395000	-1.762927
	17.400000	-1.679119
	17.405000	-1.643662
	17.410000	-1.730693
	17.415000	-1.769373
	17.420000	-1.688789
	17.425000	-1.646886
	17.430000	-1.733916
	17.435000	-1.772597
	17.440000	-1.685566
	17.445000	-1.646886
	17.450000	-1.724246
	17.455000	-1.772597
	17.460000	-1.685566
	17.465000	-1.646886
	17.470000	-1.730693
	17.475000	-1.772597
	17.480000	-1.688789
	17.485000	-1.653332
	17.490000	-1.733916
	17.495000	-1.769373
	17.500000	-1.688789
	17.505000	-1.656556
	17.510000	-1.733916
	17.515000	-1.769373
	17.520000	-1.688789
	17.525000	-1.650109
	17.530000	-1.733916
	17.535000	-1.775820
	17.540000	-1.692013
	17.545000	-1.653332
	17.550000	-1.737140
	17.555000	-1.775820
	17.560000	-1.695236
	17.565000	-1.653332
	17.570000	-1.740363
	17.575000	-1.769373
	17.580000	-1.698459
	17.585000	-1.653332
	17.590000	-1.737140
	17.595000	-1.772597
	17.600000	-1.695236
	17.605000	-1.653332
	17.610000	-1.733916
	17.615000	-1.775820
	17.620000	-1.698459
	17.625000	-1.656556
	17.630000	-1.733916
	17.635000	-1.775820
	17.640000	-1.695236
	17.645000	-1.646886
	17.650000	-1.737140
	17.655000	-1.772597
	17.660000	-1.692013
	17.665000	-1.663002
	17.670000	-1.730693
	17.675000	-1.772597
	17.680000	-1.695236
	17.685000	-1.653332
	17.690000	-1.737140
	17.695000	-1.775820
	17.700000	-1.692013
	17.705000	-1.653332
	17.710000	-1.733916
	17.715000	-1.775820
	17.720000	-1.698459
	17.725000	-1.646886
	17.730000	-1.737140
	17.735000	-1.775820
	17.740000	-1.695236
	17.745000	-1.650109
	17.750000	-1.743586
	17.755000	-1.779043
	17.760000	-1.688789
	17.765000	-1.653332
	17.770000	-1.740363
	17.775000	-1.772597
	17.780000	-1.692013
	17.785000	-1.659779
	17.790000	-1.740363
	17.795000	-1.772597
	17.800000	-1.695236
	17.805000	-1.659779
	17.810000	-1.740363
	17.815000	-1.782267
	17.820000	-1.692013
	17.825000	-1.646886
	17.830000	-1.727470
	17.835000	-1.785490
	17.840000	-1.695236
	17.845000	-1.656556
	17.850000	-1.737140
	17.855000	-1.772597
	17.860000	-1.692013
	17.865000	-1.663002
	17.870000	-1.727470
	17.875000	-1.775820
	17.880000	-1.698459
	17.885000	-1.653332
	17.890000	-1.737140
	17.895000	-1.775820
	17.900000	-1.695236
	17.905000	-1.646886
	17.910000	-1.740363
	17.915000	-1.785490
	17.920000	-1.704906
	17.925000	-1.656556
	17.930000	-1.733916
	17.935000	-1.779043
	17.940000	-1.692013
	17.945000	-1.650109
	17.950000	-1.740363
	17.955000	-1.779043
	17.960000	-1.695236
	17.965000	-1.656556
	17.970000	-1.740363
	17.975000	-1.785490
	17.980000	-1.695236
	17.985000	-1.653332
	17.990000	-1.737140
	17.995000	-1.785490
	18.000000	-1.692013
	18.005000	-1.650109
	18.010000	-1.740363
	18.015000	-1.782267
	18.020000	-1.698459
	18.025000	-1.653332
	18.030000	-1.737140
	18.035000	-1.782267
	18.040000	-1.698459
	18.045000	-1.650109
	18.050000	-1.730693
	18.055000	-1.788713
	18.060000	-1.695236
	18.065000	-1.653332
	18.070000	-1.740363
	18.075000	-1.782267
	18.080000	-1.704906
	18.085000	-1.656556
	18.090000	-1.733916
	18.095000	-1.779043
	18.100000	-1.698459
	18.105000	-1.659779
	18.110000	-1.740363
	18.115000	-1.779043
	18.120000	-1.698459
	18.125000	-1.659779
	18.130000	-1.733916
	18.135000	-1.779043
	18.140000	-1.701683
	18.145000	-1.653332
	18.150000	-1.733916
	18.155000	-1.779043
	18.160000	-1.704906
	18.165000	-1.653332
	18.170000	-1.737140
	18.175000	-1.775820
	18.180000	-1.692013
	18.185000	-1.650109
	18.190000	-1.733916
	18.195000	-1.775820
	18.200000	-1.695236
	18.205000	-1.653332
	18.210000	-1.733916
	18.215000	-1.779043
	18.220000	-1.698459
	18.225000	-1.653332
	18.230000	-1.737140
	18.235000	-1.779043
	18.240000	-1.695236
	18.245000	-1.653332
	18.250000	-1.733916
	18.255000	-1.775820
	18.260000	-1.695236
	18.265000	-1.646886
	18.270000	-1.733916
	18.275000	-1.769373
	18.280000	-1.701683
	18.285000	-1.650109
	18.290000	-1.733916
	18.295000	-1.766150
	18.300000	-1.688789
	18.305000	-1.650109
	18.310000	-1.733916
	18.315000	-1.766150
	18.320000	-1.688789
	18.325000	-1.646886
	18.330000	-1.724246
	18.335000	-1.769373
	18.340000	-1.692013
	18.345000	-1.633992
	18.350000	-1.724246
	18.355000	-1.766150
	18.360000	-1.685566
	18.365000	-1.643662
	18.370000	-1.724246
	18.375000	-1.762927
	18.380000	-1.685566
	18.385000	-1.640439
	18.390000	-1.721023
	18.395000	-1.766150
	18.400000	-1.685566
	18.405000	-1.640439
	18.410000	-1.717800
	18.415000	-1.766150
	18.420000	-1.682343
	18.425000	-1.633992
	18.430000	-1.721023
	18.435000	-1.756480
	18.440000	-1.672673
	18.445000	-1.633992
	18.450000	-1.724246
	18.455000	-1.759703
	18.460000	-1.675896
	18.465000	-1.630769
	18.470000	-1.708129
	18.475000	-1.756480
	18.480000	-1.675896
	18.485000	-1.624322
	18.490000	-1.708129
	18.495000	-1.753257
	18.500000	-1.666226
	18.505000	-1.633992
	18.510000	-1.704906
	18.515000	-1.746810
	18.520000	-1.672673
	18.525000	-1.627546
	18.530000	-1.708129
	18.535000	-1.746810
	18.540000	-1.656556
	18.545000	-1.624322
	18.550000	-1.708129
	18.555000	-1.750033
	18.560000	-1.659779
	18.565000	-1.624322
	18.570000	-1.701683
	18.575000	-1.753257
	18.580000	-1.663002
	18.585000	-1.621099
	18.590000	-1.701683
	18.595000	-1.753257
	18.600000	-1.659779
	18.605000	-1.621099
	18.610000	-1.701683
	18.615000	-1.753257
	18.620000	-1.663002
	18.625000	-1.621099
	18.630000	-1.704906
	18.635000	-1.756480
	18.640000	-1.669449
	18.645000	-1.627546
	18.650000	-1.711353
	18.655000	-1.746810
	18.660000	-1.672673
	18.665000	-1.627546
	18.670000	-1.708129
	18.675000	-1.750033
	18.680000	-1.672673
	18.685000	-1.633992
	18.690000	-1.708129
	18.695000	-1.746810
	18.700000	-1.669449
	18.705000	-1.630769
	18.710000	-1.711353
	18.715000	-1.756480
	18.720000	-1.672673
	18.725000	-1.637216
	18.730000	-1.717800
	18.735000	-1.756480
	18.740000	-1.675896
	18.745000	-1.630769
	18.750000	-1.711353
	18.755000	-1.759703
	18.760000	-1.679119
	18.765000	-1.633992
	18.770000	-1.717800
	18.775000	-1.766150
	18.780000	-1.672673
	18.785000	-1.637216
	18.790000	-1.711353
	18.795000	-1.762927
	18.800000	-1.675896
	18.805000	-1.637216
	18.810000	-1.717800
	18.815000	-1.759703
	18.820000	-1.685566
	18.825000	-1.643662
	18.830000	-1.721023
	18.835000	-1.759703
	18.840000	-1.685566
	18.845000	-1.640439
	18.850000	-1.721023
	18.855000	-1.769373
	18.860000	-1.679119
	18.865000	-1.643662
	18.870000	-1.721023
	18.875000	-1.766150
	18.880000	-1.688789
	18.885000	-1.650109
	18.890000	-1.727470
	18.895000	-1.762927
	18.900000	-1.685566
	18.905000	-1.643662
	18.910000	-1.717800
	18.915000	-1.772597
	18.920000	-1.682343
	18.925000	-1.637216
	18.930000	-1.727470
	18.935000	-1.762927
	18.940000	-1.682343
	18.945000	-1.640439
	18.950000	-1.727470
	18.955000	-1.759703
	18.960000	-1.679119
	18.965000	-1.640439
	18.970000	-1.724246
	18.975000	-1.769373
	18.980000	-1.688789
	18.985000	-1.653332
	18.990000	-1.724246
	18.995000	-1.766150
	19.000000	-1.682343
	19.005000	-1.650109
	19.010000	-1.721023
	19.015000	-1.775820
	19.020000	-1.685566
	19.025000	-1.646886
	19.030000	-1.730693
	19.035000	-1.769373
	19.040000	-1.685566
	19.045000	-1.643662
	19.050000	-1.730693
	19.055000	-1.766150
	19.060000	-1.692013
	19.065000	-1.650109
	19.070000	-1.724246
	19.075000	-1.772597
	19.080000	-1.695236
	19.085000	-1.650109
	19.090000	-1.727470
	19.095000	-1.772597
	19.100000	-1.685566
	19.105000	-1.650109
	19.110000	-1.727470
	19.115000	-1.769373
	19.120000	-1.695236
	19.125000	-1.643662
	19.130000	-1.721023
	19.135000	-1.766150
	19.140000	-1.685566
	19.145000	-1.646886
	19.150000	-1.730693
	19.155000	-1.769373
	19.160000	-1.698459
	19.165000	-1.643662
	19.170000	-1.727470
	19.175000	-1.779043
	19.180000	-1.688789
	19.185000	-1.653332
	19.190000	-1.733916
	19.195000	-1.775820
	19.200000	-1.698459
	19.205000	-1.646886
	19.210000	-1.730693
	19.215000	-1.779043
	19.220000	-1.688789
	19.225000	-1.646886
	19.230000	-1.730693
	19.235000	-1.775820
	19.240000	-1.695236
	19.245000	-1.656556
	19.250000	-1.740363
	19.255000	-1.779043
	19.260000	-1.708129
	19.265000	-1.650109
	19.270000	-1.733916
	19.275000	-1.769373
	19.280000	-1.685566
	19.285000	-1.624322
	19.290000	-1.688789
	19.295000	-1.708129
	19.300000	-1.608205
	19.305000	-1.530845
	19.310000	-1.592089
	19.315000	-1.604982
	19.320000	-1.492164
	19.325000	-1.434144
	19.330000	-1.485718
	19.335000	-1.514728
	19.340000	-1.421251
	19.345000	-1.363230
	19.350000	-1.427697
	19.355000	-1.466378
	19.360000	-1.372900
	19.365000	-1.324550
	19.370000	-1.395464
	19.375000	-1.434144
	19.380000	-1.350337
	19.385000	-1.308433
	19.390000	-1.372900
	19.395000	-1.418027
	19.400000	-1.327773
	19.405000	-1.285869
	19.410000	-1.350337
	19.415000	-1.395464
	19.420000	-1.311656
	19.425000	-1.263306
	19.430000	-1.334220
	19.435000	-1.372900
	19.440000	-1.289093
	19.445000	-1.250413
	19.450000	-1.321326
	19.455000	-1.356783
	19.460000	-1.282646
	19.465000	-1.240742
	19.470000	-1.308433
	19.475000	-1.356783
	19.480000	-1.276199
	19.485000	-1.237519
	19.490000	-1.314880
	19.495000	-1.350337
	19.500000	-1.269753
	19.505000	-1.237519
	19.510000	-1.308433
	19.515000	-1.347113
	19.520000	-1.272976
	19.525000	-1.227849
	19.530000	-1.305210
	19.535000	-1.340667
	19.540000	-1.272976
	19.545000	-1.231072
	19.550000	-1.298763
	19.555000	-1.337443
	19.560000	-1.266529
	19.565000	-1.224626
	19.570000	-1.298763
	19.575000	-1.337443
	19.580000	-1.272976
	19.585000	-1.224626
	19.590000	-1.298763
	19.595000	-1.340667
	19.600000	-1.266529
	19.605000	-1.224626
	19.610000	-1.295540
	19.615000	-1.337443
	19.620000	-1.269753
	19.625000	-1.231072
	19.630000	-1.298763
	19.635000	-1.343890
	19.640000	-1.269753
	19.645000	-1.224626
	19.650000	-1.298763
	19.655000	-1.337443
	19.660000	-1.266529
	19.665000	-1.231072
	19.670000	-1.298763
	19.675000	-1.327773
	19.680000	-1.272976
	19.685000	-1.227849
	19.690000	-1.298763
	19.695000	-1.334220
	19.700000	-1.266529
	19.705000	-1.231072
	19.710000	-1.295540
	19.715000	-1.330996
	19.720000	-1.263306
	19.725000	-1.224626
	19.730000	-1.292316
	19.735000	-1.337443
	19.740000	-1.276199
	19.745000	-1.218179
	19.750000	-1.289093
	19.755000	-1.337443
	19.760000	-1.266529
	19.765000	-1.221402
	19.770000	-1.292316
	19.775000	-1.340667
	19.780000	-1.266529
	19.785000	-1.224626
	19.790000	-1.292316
	19.795000	-1.334220
	19.800000	-1.269753
	19.805000	-1.231072
	19.810000	-1.298763
	19.815000	-1.337443
	19.820000	-1.276199
	19.825000	-1.231072
	19.830000	-1.305210
	19.835000	-1.343890
	19.840000	-1.279423
	19.845000	-1.237519
	19.850000	-1.305210
	19.855000	-1.350337
	19.860000	-1.279423
	19.865000	-1.247189
	19.870000	-1.318103
	19.875000	-1.356783
	19.880000	-1.301986
	19.885000	-1.263306
	19.890000	-1.334220
	19.895000	-1.385794
	19.900000	-1.321326
	19.905000	-1.292316
	19.910000	-1.369677
	19.915000	-1.414804
	19.920000	-1.356783
	19.925000	-1.334220
	19.930000	-1.418027
	19.935000	-1.476048
	19.940000	-1.414804
	19.945000	-1.382570
	19.950000	-1.482494
	19.955000	-1.534068
	19.960000	-1.476048
	19.965000	-1.456707
	19.970000	-1.546962
	19.975000	-1.624322
	19.980000	-1.569525
	19.985000	-1.559855
	19.990000	-1.640439
	19.995000	-1.714576
	20.000000	-1.656556
	20.005000	-1.633992
	20.010000	-1.727470
	20.015000	-1.791937
	20.020000	-1.727470
	20.025000	-1.698459
	20.030000	-1.779043
	20.035000	-1.840287
	20.040000	-1.766150
	20.045000	-1.733916
	20.050000	-1.814500
	20.055000	-1.869297
	20.060000	-1.785490
	20.065000	-1.746810
	20.070000	-1.833840
	20.075000	-1.869297
	20.080000	-1.801607
	20.085000	-1.759703
	20.090000	-1.833840
	20.095000	-1.878968
	20.100000	-1.798384
	20.105000	-1.759703
	20.110000	-1.830617
	20.115000	-1.878968
	20.120000	-1.804830
	20.125000	-1.759703
	20.130000	-1.827394
	20.135000	-1.872521
	20.140000	-1.791937
	20.145000	-1.746810
	20.150000	-1.827394
	20.155000	-1.869297
	20.160000	-1.785490
	20.165000	-1.740363
	20.170000	-1.817724
	20.175000	-1.859627
	20.180000	-1.779043
	20.185000	-1.737140
	20.190000	-1.804830
	20.195000	-1.859627
	20.200000	-1.772597
	20.205000	-1.724246
	20.210000	-1.801607
	20.215000	-1.833840
	20.220000	-1.762927
	20.225000	-1.711353
	20.230000	-1.785490
	20.235000	-1.830617
	20.240000	-1.756480
	20.245000	-1.711353
	20.250000	-1.788713
	20.255000	-1.824170
	20.260000	-1.753257
	20.265000	-1.704906
	20.270000	-1.779043
	20.275000	-1.820947
	20.280000	-1.750033
	20.285000	-1.701683
	20.290000	-1.779043
	20.295000	-1.824170
	20.300000	-1.750033
	20.305000	-1.698459
	20.310000	-1.769373
	20.315000	-1.814500
	20.320000	-1.743586
	20.325000	-1.695236
	20.330000	-1.762927
	20.335000	-1.811277
	20.340000	-1.727470
	20.345000	-1.682343
	20.350000	-1.756480
	20.355000	-1.804830
	20.360000	-1.727470
	20.365000	-1.675896
	20.370000	-1.759703
	20.375000	-1.801607
	20.380000	-1.724246
	20.385000	-1.679119
	20.390000	-1.750033
	20.395000	-1.804830
	20.400000	-1.724246
	20.405000	-1.679119
	20.410000	-1.756480
	20.415000	-1.804830
	20.420000	-1.721023
	20.425000	-1.679119
	20.430000	-1.753257
	20.435000	-1.804830
	20.440000	-1.727470
	20.445000	-1.679119
	20.450000	-1.746810
	20.455000	-1.798384
	20.460000	-1.724246
	20.465000	-1.675896
	20.470000	-1.750033
	20.475000	-1.798384
	20.480000	-1.727470
	20.485000	-1.679119
	20.490000	-1.753257
	20.495000	-1.804830
	20.500000	-1.721023
	20.505000	-1.679119
	20.510000	-1.753257
	20.515000	-1.795160
	20.520000	-1.724246
	20.525000	-1.682343
	20.530000	-1.756480
	20.535000	-1.808054
	20.540000	-1.730693
	20.545000	-1.682343
	20.550000	-1.756480
	20.555000	-1.811277
	20.560000	-1.733916
	20.565000	-1.688789
	20.570000	-1.762927
	20.575000	-1.811277
	20.580000	-1.733916
	20.585000	-1.695236
	20.590000	-1.769373
	20.595000	-1.820947
	20.600000	-1.753257
	20.605000	-1.692013
	20.610000	-1.772597
	20.615000	-1.820947
	20.620000	-1.733916
	20.625000	-1.695236
	20.630000	-1.779043
	20.635000	-1.824170
	20.640000	-1.750033
	20.645000	-1.698459
	20.650000	-1.779043
	20.655000	-1.817724
	20.660000	-1.756480
	20.665000	-1.704906
	20.670000	-1.779043
	20.675000	-1.830617
	20.680000	-1.746810
	20.685000	-1.701683
	20.690000	-1.782267
	20.695000	-1.824170
	20.700000	-1.756480
	20.705000	-1.708129
	20.710000	-1.782267
	20.715000	-1.830617
	20.720000	-1.746810
	20.725000	-1.708129
	20.730000	-1.782267
	20.735000	-1.830617
	20.740000	-1.756480
	20.745000	-1.704906
	20.750000	-1.782267
	20.755000	-1.833840
	20.760000	-1.753257
	20.765000	-1.708129
	20.770000	-1.782267
	20.775000	-1.837064
	20.780000	-1.759703
	20.785000	-1.708129
	20.790000	-1.788713
	20.795000	-1.833840
	20.800000	-1.756480
	20.805000	-1.708129
	20.810000	-1.788713
	20.815000	-1.840287
	20.820000	-1.756480
	20.825000	-1.717800
	20.830000	-1.782267
	20.835000	-1.840287
	20.840000	-1.766150
	20.845000	-1.708129
	20.850000	-1.782267
	20.855000	-1.833840
	20.860000	-1.756480
	20.865000	-1.711353
	20.870000	-1.785490
	20.875000	-1.833840
	20.880000	-1.756480
	20.885000	-1.711353
	20.890000	-1.782267
	20.895000	-1.840287
	20.900000	-1.759703
	20.905000	-1.711353
	20.910000	-1.788713
	20.915000	-1.837064
	20.920000	-1.759703
	20.925000	-1.708129
	20.930000	-1.785490
	20.935000	-1.849957
	20.940000	-1.759703
	20.945000	-1.714576
	20.950000	-1.798384
	20.955000	-1.846734
	20.960000	-1.769373
	20.965000	-1.721023
	20.970000	-1.798384
	20.975000	-1.843511
	20.980000	-1.772597
	20.985000	-1.721023
	20.990000	-1.801607
	20.995000	-1.843511
	21.000000	-1.772597
	21.005000	-1.724246
	21.010000	-1.801607
	21.015000	-1.853181
	21.020000	-1.782267
	21.025000	-1.721023
	21.030000	-1.801607
	21.035000	-1.859627
	21.040000	-1.775820
	21.045000	-1.733916
	21.050000	-1.804830
	21.055000	-1.862851
	21.060000	-1.785490
	21.065000	-1.733916
	21.070000	-1.811277
	21.075000	-1.862851
	21.080000	-1.788713
	21.085000	-1.730693
	21.090000	-1.814500
	21.095000	-1.866074
	21.100000	-1.788713
	21.105000	-1.733916
	21.110000	-1.814500
	21.115000	-1.866074
	21.120000	-1.788713
	21.125000	-1.737140
	21.130000	-1.817724
	21.135000	-1.869297
	21.140000	-1.788713
	21.145000	-1.743586
	21.150000	-1.824170
	21.155000	-1.872521
	21.160000	-1.791937
	21.165000	-1.737140
	21.170000	-1.824170
	21.175000	-1.872521
	21.180000	-1.788713
	21.185000	-1.743586
	21.190000	-1.817724
	21.195000	-1.866074
	21.200000	-1.788713
	21.205000	-1.746810
	21.210000	-1.817724
	21.215000	-1.866074
	21.220000	-1.791937
	21.225000	-1.743586
	21.230000	-1.827394
	21.235000	-1.869297
	21.240000	-1.782267
	21.245000	-1.740363
	21.250000	-1.814500
	21.255000	-1.872521
	21.260000	-1.788713
	21.265000	-1.743586
	21.270000	-1.817724
	21.275000	-1.869297
	21.280000	-1.791937
	21.285000	-1.746810
	21.290000	-1.817724
	21.295000	-1.875744
	21.300000	-1.788713
	21.305000	-1.743586
	21.310000	-1.820947
	21.315000	-1.869297
	21.320000	-1.791937
	21.325000	-1.733916
	21.330000	-1.820947
	21.335000	-1.869297
	21.340000	-1.788713
	21.345000	-1.737140
	21.350000	-1.817724
	21.355000	-1.859627
	21.360000	-1.795160
	21.365000	-1.740363
	21.370000	-1.820947
	21.375000	-1.869297
	21.380000	-1.795160
	21.385000	-1.743586
	21.390000	-1.820947
	21.395000	-1.869297
	21.400000	-1.795160
	21.405000	-1.740363
	21.410000	-1.820947
	21.415000	-1.856404
	21.420000	-1.791937
	21.425000	-1.740363
	21.430000	-1.814500
	21.435000	-1.869297
	21.440000	-1.791937
	21.445000	-1.737140
	21.450000	-1.814500
	21.455000	-1.866074
	21.460000	-1.791937
	21.465000	-1.737140
	21.470000	-1.820947
	21.475000	-1.866074
	21.480000	-1.782267
	21.485000	-1.730693
	21.490000	-1.804830
	21.495000	-1.866074
	21.500000	-1.782267
	21.505000	-1.730693
	21.510000	-1.798384
	21.515000	-1.853181
	21.520000	-1.772597
	21.525000	-1.717800
	21.530000	-1.801607
	21.535000	-1.856404
	21.540000	-1.769373
	21.545000	-1.717800
	21.550000	-1.795160
	21.555000	-1.846734
	21.560000	-1.766150
	21.565000	-1.717800
	21.570000	-1.798384
	21.575000	-1.849957
	21.580000	-1.766150
	21.585000	-1.717800
	21.590000	-1.795160
	21.595000	-1.843511
	21.600000	-1.766150
	21.605000	-1.714576
	21.610000	-1.782267
	21.615000	-1.846734
	21.620000	-1.762927
	21.625000	-1.711353
	21.630000	-1.791937
	21.635000	-1.837064
	21.640000	-1.766150
	21.645000	-1.714576
	21.650000	-1.791937
	21.655000	-1.837064
	21.660000	-1.759703
	21.665000	-1.711353
	21.670000	-1.788713
	21.675000	-1.833840
	21.680000	-1.766150
	21.685000	-1.714576
	21.690000	-1.791937
	21.695000	-1.837064
	21.700000	-1.762927
	21.705000	-1.711353
	21.710000	-1.785490
	21.715000	-1.849957
	21.720000	-1.766150
	21.725000	-1.724246
	21.730000	-1.798384
	21.735000	-1.853181
	21.740000	-1.772597
	21.745000	-1.727470
	21.750000	-1.795160
	21.755000	-1.853181
	21.760000	-1.775820
	21.765000	-1.724246
	21.770000	-1.801607
	21.775000	-1.859627
	21.780000	-1.779043
	21.785000	-1.730693
	21.790000	-1.804830
	21.795000	-1.859627
	21.800000	-1.788713
	21.805000	-1.733916
	21.810000	-1.808054
	21.815000	-1.859627
	21.820000	-1.788713
	21.825000	-1.737140
	21.830000	-1.804830
	21.835000	-1.866074
	21.840000	-1.785490
	21.845000	-1.730693
	21.850000	-1.808054
	21.855000	-1.859627
	21.860000	-1.782267
	21.865000	-1.733916
	21.870000	-1.814500
	21.875000	-1.866074
	21.880000	-1.785490
	21.885000	-1.733916
	21.890000	-1.814500
	21.895000	-1.872521
	21.900000	-1.798384
	21.905000	-1.743586
	21.910000	-1.817724
	21.915000	-1.875744
	21.920000	-1.811277
	21.925000	-1.746810
	21.930000	-1.837064
	21.935000	-1.885414
	21.940000	-1.808054
	21.945000	-1.759703
	21.950000	-1.840287
	21.955000	-1.888638
	21.960000	-1.814500
	21.965000	-1.762927
	21.970000	-1.846734
	21.975000	-1.898308
	21.980000	-1.817724
	21.985000	-1.762927
	21.990000	-1.849957
	21.995000	-1.898308
	22.000000	-1.820947
	22.005000	-1.775820
	22.010000	-1.849957
	22.015000	-1.901531
	22.020000	-1.827394
	22.025000	-1.779043
	22.030000	-1.849957
	22.035000	-1.904754
	22.040000	-1.830617
	22.045000	-1.779043
	22.050000	-1.849957
	22.055000	-1.907978
	22.060000	-1.840287
	22.065000	-1.779043
	22.070000	-1.859627
	22.075000	-1.907978
	22.080000	-1.833840
	22.085000	-1.782267
	22.090000	-1.859627
	22.095000	-1.914424
	22.100000	-1.833840
	22.105000	-1.779043
	22.110000	-1.856404
	22.115000	-1.907978
	22.120000	-1.830617
	22.125000	-1.779043
	22.130000	-1.853181
	22.135000	-1.898308
	22.140000	-1.824170
	22.145000	-1.775820
	22.150000	-1.846734
	22.155000	-1.895084
	22.160000	-1.814500
	22.165000	-1.762927
	22.170000	-1.830617
	22.175000	-1.878968
	22.180000	-1.804830
	22.185000	-1.746810
	22.190000	-1.811277
	22.195000	-1.866074
	22.200000	-1.785490
	22.205000	-1.721023
	22.210000	-1.791937
	22.215000	-1.843511
	22.220000	-1.762927
	22.225000	-1.698459
	22.230000	-1.772597
	22.235000	-1.820947
	22.240000	-1.746810
	22.245000	-1.685566
	22.250000	-1.756480
	22.255000	-1.804830
	22.260000	-1.727470
	22.265000	-1.672673
	22.270000	-1.750033
	22.275000	-1.801607
	22.280000	-1.721023
	22.285000	-1.663002
	22.290000	-1.733916
	22.295000	-1.791937
	22.300000	-1.717800
	22.305000	-1.663002
	22.310000	-1.730693
	22.315000	-1.782267
	22.320000	-1.708129
	22.325000	-1.656556
	22.330000	-1.730693
	22.335000	-1.788713
	22.340000	-1.711353
	22.345000	-1.653332
	22.350000	-1.727470
	22.355000	-1.782267
	22.360000	-1.708129
	22.365000	-1.653332
	22.370000	-1.727470
	22.375000	-1.779043
	22.380000	-1.711353
	22.385000	-1.653332
	22.390000	-1.724246
	22.395000	-1.782267
	22.400000	-1.701683
	22.405000	-1.650109
	22.410000	-1.727470
	22.415000	-1.775820
	22.420000	-1.701683
	22.425000	-1.646886
	22.430000	-1.714576
	22.435000	-1.772597
	22.440000	-1.698459
	22.445000	-1.650109
	22.450000	-1.717800
	22.455000	-1.769373
	22.460000	-1.695236
	22.465000	-1.640439
	22.470000	-1.724246
	22.475000	-1.769373
	22.480000	-1.698459
	22.485000	-1.643662
	22.490000	-1.714576
	22.495000	-1.772597
	22.500000	-1.692013
	22.505000	-1.646886
	22.510000	-1.717800
	22.515000	-1.779043
	22.520000	-1.695236
	22.525000	-1.646886
	22.530000	-1.717800
	22.535000	-1.766150
	22.540000	-1.695236
	22.545000	-1.640439
	22.550000	-1.721023
	22.555000	-1.775820
	22.560000	-1.704906
	22.565000	-1.653332
	22.570000	-1.721023
	22.575000	-1.782267
	22.580000	-1.701683
	22.585000	-1.653332
	22.590000	-1.733916
	22.595000	-1.785490
	22.600000	-1.704906
	22.605000	-1.659779
	22.610000	-1.733916
	22.615000	-1.788713
	22.620000	-1.721023
	22.625000	-1.666226
	22.630000	-1.730693
	22.635000	-1.791937
	22.640000	-1.717800
	22.645000	-1.663002
	22.650000	-1.737140
	22.655000	-1.795160
	22.660000	-1.714576
	22.665000	-1.669449
	22.670000	-1.727470
	22.675000	-1.785490
	22.680000	-1.714576
	22.685000	-1.656556
	22.690000	-1.740363
	22.695000	-1.785490
	22.700000	-1.708129
	22.705000	-1.659779
	22.710000	-1.730693
	22.715000	-1.782267
	22.720000	-1.708129
	22.725000	-1.653332
	22.730000	-1.717800
	22.735000	-1.779043
	22.740000	-1.701683
	22.745000	-1.646886
	22.750000	-1.717800
	22.755000	-1.772597
	22.760000	-1.695236
	22.765000	-1.653332
	22.770000	-1.721023
	22.775000	-1.769373
	22.780000	-1.692013
	22.785000	-1.637216
	22.790000	-1.714576
	22.795000	-1.769373
	22.800000	-1.685566
	22.805000	-1.637216
	22.810000	-1.708129
	22.815000	-1.756480
	22.820000	-1.688789
	22.825000	-1.633992
	22.830000	-1.701683
	22.835000	-1.756480
	22.840000	-1.685566
	22.845000	-1.627546
	22.850000	-1.701683
	22.855000	-1.756480
	22.860000	-1.679119
	22.865000	-1.624322
	22.870000	-1.698459
	22.875000	-1.756480
	22.880000	-1.685566
	22.885000	-1.630769
	22.890000	-1.704906
	22.895000	-1.753257
	22.900000	-1.682343
	22.905000	-1.621099
	22.910000	-1.695236
	22.915000	-1.753257
	22.920000	-1.679119
	22.925000	-1.624322
	22.930000	-1.695236
	22.935000	-1.743586
	22.940000	-1.675896
	22.945000	-1.624322
	22.950000	-1.698459
	22.955000	-1.746810
	22.960000	-1.672673
	22.965000	-1.624322
	22.970000	-1.701683
	22.975000	-1.750033
	22.980000	-1.672673
	22.985000	-1.627546
	22.990000	-1.695236
	22.995000	-1.753257
	23.000000	-1.679119
	23.005000	-1.624322
	23.010000	-1.698459
	23.015000	-1.753257
	23.020000	-1.682343
	23.025000	-1.630769
	23.030000	-1.704906
	23.035000	-1.756480
	23.040000	-1.682343
	23.045000	-1.630769
	23.050000	-1.711353
	23.055000	-1.756480
	23.060000	-1.679119
	23.065000	-1.633992
	23.070000	-1.698459
	23.075000	-1.753257
	23.080000	-1.682343
	23.085000	-1.633992
	23.090000	-1.701683
	23.095000	-1.759703
	23.100000	-1.688789
	23.105000	-1.630769
	23.110000	-1.704906
	23.115000	-1.753257
	23.120000	-1.688789
	23.125000	-1.633992
	23.130000	-1.711353
	23.135000	-1.769373
	23.140000	-1.695236
	23.145000	-1.643662
	23.150000	-1.708129
	23.155000	-1.766150
	23.160000	-1.695236
	23.165000	-1.643662
	23.170000	-1.717800
	23.175000	-1.772597
	23.180000	-1.701683
	23.185000	-1.646886
	23.190000	-1.717800
	23.195000	-1.779043
	23.200000	-1.708129
	23.205000	-1.656556
	23.210000	-1.721023
	23.215000	-1.782267
	23.220000	-1.711353
	23.225000	-1.656556
	23.230000	-1.733916
	23.235000	-1.788713
	23.240000	-1.717800
	23.245000	-1.663002
	23.250000	-1.733916
	23.255000	-1.795160
	23.260000	-1.724246
	23.265000	-1.666226
	23.270000	-1.743586
	23.275000	-1.795160
	23.280000	-1.727470
	23.285000	-1.675896
	23.290000	-1.746810
	23.295000	-1.814500
	23.300000	-1.733916
	23.305000	-1.682343
	23.310000	-1.756480
	23.315000	-1.814500
	23.320000	-1.743586
	23.325000	-1.685566
	23.330000	-1.759703
	23.335000	-1.820947
	23.340000	-1.746810
	23.345000	-1.692013
	23.350000	-1.766150
	23.355000	-1.827394
	23.360000	-1.746810
	23.365000	-1.701683
	23.370000	-1.769373
	23.375000	-1.827394
	23.380000	-1.759703
	23.385000	-1.695236
	23.390000	-1.775820
	23.395000	-1.833840
	23.400000	-1.762927
	23.405000	-1.711353
	23.410000	-1.785490
	23.415000	-1.840287
	23.420000	-1.766150
	23.425000	-1.717800
	23.430000	-1.788713
	23.435000	-1.846734
	23.440000	-1.775820
	23.445000	-1.717800
	23.450000	-1.795160
	23.455000	-1.856404
	23.460000	-1.788713
	23.465000	-1.733916
	23.470000	-1.804830
	23.475000	-1.862851
	23.480000	-1.795160
	23.485000	-1.740363
	23.490000	-1.817724
	23.495000	-1.869297
	23.500000	-1.801607
	23.505000	-1.756480
	23.510000	-1.827394
	23.515000	-1.882191
	23.520000	-1.801607
	23.525000	-1.756480
	23.530000	-1.830617
	23.535000	-1.878968
	23.540000	-1.814500
	23.545000	-1.753257
	23.550000	-1.843511
	23.555000	-1.885414
	23.560000	-1.820947
	23.565000	-1.759703
	23.570000	-1.833840
	23.575000	-1.895084
	23.580000	-1.820947
	23.585000	-1.759703
	23.590000	-1.837064
	23.595000	-1.891861
	23.600000	-1.820947
	23.605000	-1.766150
	23.610000	-1.843511
	23.615000	-1.895084
	23.620000	-1.824170
	23.625000	-1.772597
	23.630000	-1.849957
	23.635000	-1.895084
	23.640000	-1.830617
	23.645000	-1.779043
	23.650000	-1.853181
	23.655000	-1.907978
	23.660000	-1.837064
	23.665000	-1.775820
	23.670000	-1.866074
	23.675000	-1.907978
	23.680000	-1.840287
	23.685000	-1.785490
	23.690000	-1.862851
	23.695000	-1.917648
	23.700000	-1.843511
	23.705000	-1.785490
	23.710000	-1.866074
	23.715000	-1.917648
	23.720000	-1.853181
	23.725000	-1.801607
	23.730000	-1.866074
	23.735000	-1.920871
	23.740000	-1.849957
	23.745000	-1.795160
	23.750000	-1.872521
	23.755000	-1.924095
	23.760000	-1.853181
	23.765000	-1.801607
	23.770000	-1.875744
	23.775000	-1.924095
	23.780000	-1.856404
	23.785000	-1.804830
	23.790000	-1.875744
	23.795000	-1.936988
	23.800000	-1.862851
	23.805000	-1.808054
	23.810000	-1.891861
	23.815000	-1.940211
	23.820000	-1.872521
	23.825000	-1.817724
	23.830000	-1.901531
	23.835000	-1.956328
	23.840000	-1.878968
	23.845000	-1.827394
	23.850000	-1.904754
	23.855000	-1.965998
	23.860000	-1.891861
	23.865000	-1.837064
	23.870000	-1.917648
	23.875000	-1.975668
	23.880000	-1.901531
	23.885000	-1.849957
	23.890000	-1.914424
	23.895000	-1.969222
	23.900000	-1.901531
	23.905000	-1.849957
	23.910000	-1.927318
	23.915000	-1.982115
	23.920000	-1.914424
	23.925000	-1.856404
	23.930000	-1.927318
	23.935000	-1.991785
	23.940000	-1.914424
	23.945000	-1.859627
	23.950000	-1.933765
	23.955000	-1.995008
	23.960000	-1.924095
	23.965000	-1.866074
	23.970000	-1.940211
	23.975000	-2.004679
	23.980000	-1.927318
	23.985000	-1.875744
	23.990000	-1.943435
	23.995000	-1.995008
	24.000000	-1.930541
	24.005000	-1.878968
	24.010000	-1.949881
	24.015000	-2.007902
	24.020000	-1.936988
	24.025000	-1.882191
	24.030000	-1.953105
	24.035000	-2.014349
	24.040000	-1.933765
	24.045000	-1.888638
	24.050000	-1.959551
	24.055000	-2.017572
	24.060000	-1.946658
	24.065000	-1.885414
	24.070000	-1.965998
	24.075000	-2.020795
	24.080000	-1.953105
	24.085000	-1.888638
	24.090000	-1.965998
	24.095000	-2.024019
	24.100000	-1.953105
	24.105000	-1.898308
	24.110000	-1.969222
	24.115000	-2.024019
	24.120000	-1.962775
	24.125000	-1.904754
	24.130000	-1.969222
	24.135000	-2.033689
	24.140000	-1.953105
	24.145000	-1.898308
	24.150000	-1.975668
	24.155000	-2.030465
	24.160000	-1.962775
	24.165000	-1.904754
	24.170000	-1.972445
	24.175000	-2.030465
	24.180000	-1.959551
	24.185000	-1.898308
	24.190000	-1.978892
	24.195000	-2.027242
	24.200000	-1.956328
	24.205000	-1.904754
	24.210000	-1.978892
	24.215000	-2.033689
	24.220000	-1.959551
	24.225000	-1.901531
	24.230000	-1.975668
	24.235000	-2.030465
	24.240000	-1.959551
	24.245000	-1.898308
	24.250000	-1.972445
	24.255000	-2.030465
	24.260000	-1.946658
	24.265000	-1.888638
	24.270000	-1.969222
	24.275000	-2.020795
	24.280000	-1.946658
	24.285000	-1.898308
	24.290000	-1.962775
	24.295000	-2.027242
	24.300000	-1.946658
	24.305000	-1.895084
	24.310000	-1.959551
	24.315000	-2.024019
	24.320000	-1.946658
	24.325000	-1.888638
	24.330000	-1.959551
	24.335000	-2.020795
	24.340000	-1.953105
	24.345000	-1.891861
	24.350000	-1.956328
	24.355000	-2.014349
	24.360000	-1.946658
	24.365000	-1.891861
	24.370000	-1.956328
	24.375000	-2.020795
	24.380000	-1.936988
	24.385000	-1.885414
	24.390000	-1.956328
	24.395000	-2.011125
	24.400000	-1.943435
	24.405000	-1.878968
	24.410000	-1.956328
	24.415000	-2.014349
	24.420000	-1.933765
	24.425000	-1.882191
	24.430000	-1.956328
	24.435000	-2.011125
	24.440000	-1.936988
	24.445000	-1.869297
	24.450000	-1.949881
	24.455000	-2.007902
	24.460000	-1.927318
	24.465000	-1.878968
	24.470000	-1.943435
	24.475000	-2.004679
	24.480000	-1.930541
	24.485000	-1.866074
	24.490000	-1.940211
	24.495000	-2.007902
	24.500000	-1.927318
	24.505000	-1.875744
	24.510000	-1.943435
	24.515000	-2.001455
	24.520000	-1.927318
	24.525000	-1.872521
	24.530000	-1.940211
	24.535000	-1.995008
	24.540000	-1.924095
	24.545000	-1.869297
	24.550000	-1.933765
	24.555000	-1.998232
	24.560000	-1.920871
	24.565000	-1.866074
	24.570000	-1.940211
	24.575000	-1.995008
	24.580000	-1.927318
	24.585000	-1.866074
	24.590000	-1.930541
	24.595000	-1.998232
	24.600000	-1.920871
	24.605000	-1.862851
	24.610000	-1.940211
	24.615000	-1.988562
	24.620000	-1.920871
	24.625000	-1.859627
	24.630000	-1.930541
	24.635000	-1.988562
	24.640000	-1.917648
	24.645000	-1.856404
	24.650000	-1.933765
	24.655000	-1.991785
	24.660000	-1.911201
	24.665000	-1.859627
	24.670000	-1.933765
	24.675000	-1.982115
	24.680000	-1.911201
	24.685000	-1.853181
	24.690000	-1.920871
	24.695000	-1.982115
	24.700000	-1.907978
	24.705000	-1.853181
	24.710000	-1.927318
	24.715000	-1.982115
	24.720000	-1.907978
	24.725000	-1.846734
	24.730000	-1.920871
	24.735000	-1.982115
	24.740000	-1.898308
	24.745000	-1.853181
	24.750000	-1.914424
	24.755000	-1.978892
	24.760000	-1.911201
	24.765000	-1.843511
	24.770000	-1.924095
	24.775000	-1.975668
	24.780000	-1.904754
	24.785000	-1.846734
	24.790000	-1.920871
	24.795000	-1.975668
	24.800000	-1.904754
	24.805000	-1.846734
	24.810000	-1.917648
	24.815000	-1.978892
	24.820000	-1.904754
	24.825000	-1.843511
	24.830000	-1.920871
	24.835000	-1.978892
	24.840000	-1.904754
	24.845000	-1.843511
	24.850000	-1.914424
	24.855000	-1.969222
	24.860000	-1.907978
	24.865000	-1.846734
	24.870000	-1.914424
	24.875000	-1.978892
	24.880000	-1.904754
	24.885000	-1.843511
	24.890000	-1.924095
	24.895000	-1.978892
	24.900000	-1.901531
	24.905000	-1.849957
	24.910000	-1.914424
	24.915000	-1.975668
	24.920000	-1.901531
	24.925000	-1.846734
	24.930000	-1.924095
	24.935000	-1.972445
	24.940000	-1.898308
	24.945000	-1.840287
	24.950000	-1.914424
	24.955000	-1.975668
	24.960000	-1.898308
	24.965000	-1.837064
	24.970000	-1.914424
	24.975000	-1.972445
	24.980000	-1.898308
	24.985000	-1.843511
	24.990000	-1.914424
	24.995000	-1.972445
	25.000000	-1.901531
	25.005000	-1.840287
	25.010000	-1.907978
	25.015000	-1.975668
	25.020000	-1.898308
	25.025000	-1.846734
	25.030000	-1.911201
	25.035000	-1.975668
	25.040000	-1.911201
	25.045000	-1.843511
	25.050000	-1.914424
	25.055000	-1.975668
	25.060000	-1.901531
	25.065000	-1.843511
	25.070000	-1.920871
	25.075000	-1.975668
	25.080000	-1.907978
	25.085000	-1.846734
	25.090000	-1.914424
	25.095000	-1.972445
	25.100000	-1.904754
	25.105000	-1.846734
	25.110000	-1.917648
	25.115000	-1.975668
	25.120000	-1.901531
	25.125000	-1.843511
	25.130000	-1.920871
	25.135000	-1.978892
	25.140000	-1.904754
	25.145000	-1.846734
	25.150000	-1.914424
	25.155000	-1.978892
	25.160000	-1.901531
	25.165000	-1.849957
	25.170000	-1.917648
	25.175000	-1.975668
	25.180000	-1.904754
	25.185000	-1.849957
	25.190000	-1.924095
	25.195000	-1.975668
	25.200000	-1.911201
	25.205000	-1.849957
	25.210000	-1.920871
	25.215000	-1.982115
	25.220000	-1.907978
	25.225000	-1.853181
	25.230000	-1.924095
	25.235000	-1.985338
	25.240000	-1.911201
	25.245000	-1.849957
	25.250000	-1.924095
	25.255000	-1.988562
	25.260000	-1.917648
	25.265000	-1.862851
	25.270000	-1.924095
	25.275000	-1.988562
	25.280000	-1.914424
	25.285000	-1.856404
	25.290000	-1.930541
	25.295000	-1.988562
	25.300000	-1.924095
	25.305000	-1.862851
	25.310000	-1.933765
	25.315000	-1.998232
	25.320000	-1.920871
	25.325000	-1.872521
	25.330000	-1.936988
	25.335000	-1.998232
	25.340000	-1.930541
	25.345000	-1.882191
	25.350000	-1.936988
	25.355000	-2.001455
	25.360000	-1.927318
	25.365000	-1.872521
	25.370000	-1.949881
	25.375000	-2.004679
	25.380000	-1.940211
	25.385000	-1.878968
	25.390000	-1.949881
	25.395000	-2.011125
	25.400000	-1.940211
	25.405000	-1.885414
	25.410000	-1.969222
	25.415000	-2.017572
	25.420000	-1.949881
	25.425000	-1.895084
	25.430000	-1.959551
	25.435000	-2.027242
	25.440000	-1.962775
	25.445000	-1.901531
	25.450000	-1.972445
	25.455000	-2.033689
	25.460000	-1.972445
	25.465000	-1.911201
	25.470000	-1.985338
	25.475000	-2.046582
	25.480000	-1.978892
	25.485000	-1.920871
	25.490000	-2.001455
	25.495000	-2.059476
	25.500000	-1.988562
	25.505000	-1.936988
	25.510000	-2.014349
	25.515000	-2.072369
	25.520000	-2.011125
	25.525000	-1.956328
	25.530000	-2.027242
	25.535000	-2.091709
	25.540000	-2.024019
	25.545000	-1.975668
	25.550000	-2.049806
	25.555000	-2.107826
	25.560000	-2.043359
	25.565000	-1.982115
	25.570000	-2.043359
	25.575000	-2.082039
	25.580000	-1.982115
	25.585000	-1.891861
	25.590000	-1.930541
	25.595000	-1.959551
	25.600000	-1.869297
	25.605000	-1.791937
	25.610000	-1.843511
	25.615000	-1.901531
	25.620000	-1.817724
	25.625000	-1.756480
	25.630000	-1.817724
	25.635000	-1.872521
	25.640000	-1.798384
	25.645000	-1.733916
	25.650000	-1.808054
	25.655000	-1.862851
	25.660000	-1.798384
	25.665000	-1.737140
	25.670000	-1.801607
	25.675000	-1.859627
	25.680000	-1.798384
	25.685000	-1.743586
	25.690000	-1.814500
	25.695000	-1.872521
	25.700000	-1.808054
	25.705000	-1.753257
	25.710000	-1.827394
	25.715000	-1.882191
	25.720000	-1.827394
	25.725000	-1.772597
	25.730000	-1.846734
	25.735000	-1.914424
	25.740000	-1.856404
	25.745000	-1.808054
	25.750000	-1.882191
	25.755000	-1.943435
	25.760000	-1.888638
	25.765000	-1.830617
	25.770000	-1.891861
	25.775000	-1.953105
	25.780000	-1.888638
	25.785000	-1.830617
	25.790000	-1.888638
	25.795000	-1.936988
	25.800000	-1.882191
	25.805000	-1.811277
	25.810000	-1.872521
	25.815000	-1.930541
	25.820000	-1.859627
	25.825000	-1.801607
	25.830000	-1.862851
	25.835000	-1.914424
	25.840000	-1.856404
	25.845000	-1.795160
	25.850000	-1.866074
	25.855000	-1.924095
	25.860000	-1.862851
	25.865000	-1.817724
	25.870000	-1.885414
	25.875000	-1.953105
	25.880000	-1.907978
	25.885000	-1.859627
	25.890000	-1.927318
	25.895000	-2.001455
	25.900000	-1.949881
	25.905000	-1.907978
	25.910000	-1.982115
	25.915000	-2.049806
	25.920000	-2.007902
	25.925000	-1.969222
	25.930000	-2.036912
	25.935000	-2.107826
	25.940000	-2.059476
	25.945000	-2.017572
	25.950000	-2.091709
	25.955000	-2.159400
	25.960000	-2.111049
	25.965000	-2.075592
	25.970000	-2.149730
	25.975000	-2.210973
	25.980000	-2.159400
	25.985000	-2.111049
	25.990000	-2.191633
	25.995000	-2.252877
	26.000000	-2.198080
	26.005000	-2.159400
	26.010000	-2.220644
	26.015000	-2.288334
	26.020000	-2.230314
	26.025000	-2.188410
	26.030000	-2.256101
	26.035000	-2.320568
	26.040000	-2.262547
	26.045000	-2.210973
	26.050000	-2.272217
	26.055000	-2.333461
	26.060000	-2.275441
	26.065000	-2.220644
	26.070000	-2.298004
	26.075000	-2.352801
	26.080000	-2.310898
	26.085000	-2.265771
	26.090000	-2.333461
	26.095000	-2.404375
	26.100000	-2.356025
	26.105000	-2.320568
	26.110000	-2.394705
	26.115000	-2.468842
	26.120000	-2.433385
	26.125000	-2.401152
	26.130000	-2.478512
	26.135000	-2.562320
	26.140000	-2.526863
	26.145000	-2.497852
	26.150000	-2.594553
	26.155000	-2.675137
	26.160000	-2.633233
	26.165000	-2.617117
	26.170000	-2.713817
	26.175000	-2.797625
	26.180000	-2.765391
	26.185000	-2.739604
	26.190000	-2.836305
	26.195000	-2.913666
	26.200000	-2.884655
	26.205000	-2.845975
	26.210000	-2.936229
	26.215000	-3.013590
	26.220000	-2.971686
	26.225000	-2.939453
	26.230000	-3.029707
	26.235000	-3.103844
	26.240000	-3.055494
	26.245000	-3.020037
	26.250000	-3.107067
	26.255000	-3.184428
	26.260000	-3.132854
	26.265000	-3.097397
	26.270000	-3.187651
	26.275000	-3.255342
	26.280000	-3.206991
	26.285000	-3.165088
	26.290000	-3.252118
	26.295000	-3.316586
	26.300000	-3.265012
	26.305000	-3.219885
	26.310000	-3.300469
	26.315000	-3.364936
	26.320000	-3.313362
	26.325000	-3.265012
	26.330000	-3.348819
	26.335000	-3.410063
	26.340000	-3.355266
	26.345000	-3.306916
	26.350000	-3.387499
	26.355000	-3.451967
	26.360000	-3.393946
	26.365000	-3.348819
	26.370000	-3.422956
	26.375000	-3.500317
	26.380000	-3.432627
	26.385000	-3.387499
	26.390000	-3.464860
	26.395000	-3.532551
	26.400000	-3.471307
	26.405000	-3.422956
	26.410000	-3.493870
	26.415000	-3.558338
	26.420000	-3.503540
	26.425000	-3.448743
	26.430000	-3.522881
	26.435000	-3.584124
	26.440000	-3.526104
	26.445000	-3.474530
	26.450000	-3.555114
	26.455000	-3.613135
	26.460000	-3.551891
	26.465000	-3.500317
	26.470000	-3.564784
	26.475000	-3.632475
	26.480000	-3.574454
	26.485000	-3.519657
	26.490000	-3.587348
	26.495000	-3.648592
	26.500000	-3.597018
	26.505000	-3.545444
	26.510000	-3.613135
	26.515000	-3.664708
	26.520000	-3.606688
	26.525000	-3.558338
	26.530000	-3.626028
	26.535000	-3.680825
	26.540000	-3.616358
	26.545000	-3.561561
