2024/7/11 	 10:20:14 
 This file comes from Vt only measurement 	 1.000000E-1 
 Voltage Sensitivity 	 0.000000E+0 
 Sampling rate 	 200 
 Number of samples per channel 	 -1 
 No filter from Labview 	 	 	 
 	 
 ***End_of_Header*** 
 	 Time 	  Voltage 	 Filtered Voltage 	 
	0.000000	0.180759
	0.005000	0.122738
	0.010000	0.090505
	0.015000	0.138855
	0.020000	0.180759
	0.025000	0.125962
	0.030000	0.084058
	0.035000	0.135632
	0.040000	0.187206
	0.045000	0.135632
	0.050000	0.090505
	0.055000	0.142079
	0.060000	0.187206
	0.065000	0.142079
	0.070000	0.096952
	0.075000	0.154972
	0.080000	0.200099
	0.085000	0.135632
	0.090000	0.100175
	0.095000	0.164642
	0.100000	0.196876
	0.105000	0.145302
	0.110000	0.096952
	0.115000	0.161419
	0.120000	0.209769
	0.125000	0.148525
	0.130000	0.100175
	0.135000	0.164642
	0.140000	0.206546
	0.145000	0.145302
	0.150000	0.109845
	0.155000	0.174312
	0.160000	0.212992
	0.165000	0.158195
	0.170000	0.119515
	0.175000	0.180759
	0.180000	0.216216
	0.185000	0.161419
	0.190000	0.122738
	0.195000	0.180759
	0.200000	0.212992
	0.205000	0.161419
	0.210000	0.125962
	0.215000	0.183982
	0.220000	0.225886
	0.225000	0.164642
	0.230000	0.129185
	0.235000	0.180759
	0.240000	0.229109
	0.245000	0.161419
	0.250000	0.129185
	0.255000	0.187206
	0.260000	0.232333
	0.265000	0.164642
	0.270000	0.132408
	0.275000	0.193652
	0.280000	0.229109
	0.285000	0.174312
	0.290000	0.142079
	0.295000	0.196876
	0.300000	0.232333
	0.305000	0.177536
	0.310000	0.142079
	0.315000	0.206546
	0.320000	0.235556
	0.325000	0.180759
	0.330000	0.158195
	0.335000	0.200099
	0.340000	0.245226
	0.345000	0.187206
	0.350000	0.151749
	0.355000	0.212992
	0.360000	0.254896
	0.365000	0.193652
	0.370000	0.158195
	0.375000	0.219439
	0.380000	0.261343
	0.385000	0.196876
	0.390000	0.154972
	0.395000	0.216216
	0.400000	0.261343
	0.405000	0.203322
	0.410000	0.161419
	0.415000	0.229109
	0.420000	0.267790
	0.425000	0.209769
	0.430000	0.174312
	0.435000	0.225886
	0.440000	0.271013
	0.445000	0.209769
	0.450000	0.177536
	0.455000	0.242003
	0.460000	0.271013
	0.465000	0.212992
	0.470000	0.180759
	0.475000	0.251673
	0.480000	0.280683
	0.485000	0.222663
	0.490000	0.180759
	0.495000	0.245226
	0.500000	0.280683
	0.505000	0.219439
	0.510000	0.190429
	0.515000	0.251673
	0.520000	0.287130
	0.525000	0.229109
	0.530000	0.193652
	0.535000	0.258119
	0.540000	0.290353
	0.545000	0.225886
	0.550000	0.196876
	0.555000	0.254896
	0.560000	0.296800
	0.565000	0.232333
	0.570000	0.196876
	0.575000	0.261343
	0.580000	0.300023
	0.585000	0.238779
	0.590000	0.209769
	0.595000	0.258119
	0.600000	0.303247
	0.605000	0.235556
	0.610000	0.209769
	0.615000	0.267790
	0.620000	0.296800
	0.625000	0.245226
	0.630000	0.209769
	0.635000	0.267790
	0.640000	0.300023
	0.645000	0.248449
	0.650000	0.219439
	0.655000	0.277460
	0.660000	0.309693
	0.665000	0.251673
	0.670000	0.209769
	0.675000	0.274236
	0.680000	0.303247
	0.685000	0.248449
	0.690000	0.219439
	0.695000	0.271013
	0.700000	0.300023
	0.705000	0.245226
	0.710000	0.209769
	0.715000	0.283906
	0.720000	0.309693
	0.725000	0.254896
	0.730000	0.216216
	0.735000	0.277460
	0.740000	0.312917
	0.745000	0.254896
	0.750000	0.212992
	0.755000	0.283906
	0.760000	0.312917
	0.765000	0.248449
	0.770000	0.216216
	0.775000	0.277460
	0.780000	0.316140
	0.785000	0.248449
	0.790000	0.225886
	0.795000	0.283906
	0.800000	0.309693
	0.805000	0.248449
	0.810000	0.219439
	0.815000	0.277460
	0.820000	0.319363
	0.825000	0.251673
	0.830000	0.216216
	0.835000	0.280683
	0.840000	0.312917
	0.845000	0.251673
	0.850000	0.212992
	0.855000	0.277460
	0.860000	0.309693
	0.865000	0.242003
	0.870000	0.212992
	0.875000	0.277460
	0.880000	0.306470
	0.885000	0.251673
	0.890000	0.216216
	0.895000	0.287130
	0.900000	0.309693
	0.905000	0.245226
	0.910000	0.219439
	0.915000	0.283906
	0.920000	0.312917
	0.925000	0.251673
	0.930000	0.216216
	0.935000	0.280683
	0.940000	0.309693
	0.945000	0.254896
	0.950000	0.219439
	0.955000	0.283906
	0.960000	0.309693
	0.965000	0.251673
	0.970000	0.225886
	0.975000	0.287130
	0.980000	0.319363
	0.985000	0.251673
	0.990000	0.222663
	0.995000	0.283906
	1.000000	0.312917
	1.005000	0.254896
	1.010000	0.219439
	1.015000	0.290353
	1.020000	0.312917
	1.025000	0.242003
	1.030000	0.222663
	1.035000	0.277460
	1.040000	0.312917
	1.045000	0.245226
	1.050000	0.219439
	1.055000	0.290353
	1.060000	0.316140
	1.065000	0.248449
	1.070000	0.232333
	1.075000	0.290353
	1.080000	0.322587
	1.085000	0.258119
	1.090000	0.232333
	1.095000	0.290353
	1.100000	0.329033
	1.105000	0.267790
	1.110000	0.242003
	1.115000	0.303247
	1.120000	0.335480
	1.125000	0.267790
	1.130000	0.242003
	1.135000	0.309693
	1.140000	0.332257
	1.145000	0.267790
	1.150000	0.242003
	1.155000	0.309693
	1.160000	0.338703
	1.165000	0.274236
	1.170000	0.242003
	1.175000	0.316140
	1.180000	0.332257
	1.185000	0.264566
	1.190000	0.242003
	1.195000	0.309693
	1.200000	0.332257
	1.205000	0.271013
	1.210000	0.242003
	1.215000	0.309693
	1.220000	0.338703
	1.225000	0.271013
	1.230000	0.258119
	1.235000	0.341927
	1.240000	0.377384
	1.245000	0.335480
	1.250000	0.335480
	1.255000	0.425734
	1.260000	0.477308
	1.265000	0.448298
	1.270000	0.451521
	1.275000	0.548222
	1.280000	0.606242
	1.285000	0.561115
	1.290000	0.567562
	1.295000	0.661039
	1.300000	0.712613
	1.305000	0.657816
	1.310000	0.661039
	1.315000	0.738400
	1.320000	0.786750
	1.325000	0.738400
	1.330000	0.722283
	1.335000	0.809314
	1.340000	0.844771
	1.345000	0.806090
	1.350000	0.796420
	1.355000	0.877004
	1.360000	0.909238
	1.365000	0.864111
	1.370000	0.857664
	1.375000	0.931801
	1.380000	0.973705
	1.385000	0.922131
	1.390000	0.902791
	1.395000	0.976929
	1.400000	1.005939
	1.405000	0.954365
	1.410000	0.941472
	1.415000	1.015609
	1.420000	1.041396
	1.425000	0.983375
	1.430000	0.980152
	1.435000	1.038172
	1.440000	1.063959
	1.445000	1.015609
	1.450000	0.993045
	1.455000	1.057512
	1.460000	1.086523
	1.465000	1.031726
	1.470000	1.018832
	1.475000	1.083299
	1.480000	1.109086
	1.485000	1.054289
	1.490000	1.031726
	1.495000	1.102640
	1.500000	1.118756
	1.505000	1.067183
	1.510000	1.051066
	1.515000	1.112310
	1.520000	1.134873
	1.525000	1.070406
	1.530000	1.060736
	1.535000	1.121980
	1.540000	1.147767
	1.545000	1.076853
	1.550000	1.063959
	1.555000	1.128426
	1.560000	1.150990
	1.565000	1.086523
	1.570000	1.070406
	1.575000	1.128426
	1.580000	1.147767
	1.585000	1.089746
	1.590000	1.067183
	1.595000	1.134873
	1.600000	1.154213
	1.605000	1.083299
	1.610000	1.063959
	1.615000	1.125203
	1.620000	1.144543
	1.625000	1.070406
	1.630000	1.054289
	1.635000	1.112310
	1.640000	1.138096
	1.645000	1.076853
	1.650000	1.067183
	1.655000	1.118756
	1.660000	1.141320
	1.665000	1.083299
	1.670000	1.054289
	1.675000	1.115533
	1.680000	1.131650
	1.685000	1.067183
	1.690000	1.047842
	1.695000	1.099416
	1.700000	1.121980
	1.705000	1.051066
	1.710000	1.028502
	1.715000	1.083299
	1.720000	1.099416
	1.725000	1.031726
	1.730000	1.005939
	1.735000	1.057512
	1.740000	1.063959
	1.745000	0.993045
	1.750000	0.976929
	1.755000	1.018832
	1.760000	1.034949
	1.765000	0.951142
	1.770000	0.925355
	1.775000	0.973705
	1.780000	0.980152
	1.785000	0.902791
	1.790000	0.864111
	1.795000	0.909238
	1.800000	0.906015
	1.805000	0.818984
	1.810000	0.760963
	1.815000	0.789974
	1.820000	0.764187
	1.825000	0.664263
	1.830000	0.603019
	1.835000	0.615912
	1.840000	0.580455
	1.845000	0.467638
	1.850000	0.409617
	1.855000	0.432181
	1.860000	0.399947
	1.865000	0.290353
	1.870000	0.245226
	1.875000	0.280683
	1.880000	0.261343
	1.885000	0.167865
	1.890000	0.119515
	1.895000	0.161419
	1.900000	0.161419
	1.905000	0.067941
	1.910000	0.042154
	1.915000	0.093728
	1.920000	0.096952
	1.925000	0.019591
	1.930000	0.003474
	1.935000	0.058271
	1.940000	0.087281
	1.945000	0.006697
	1.950000	-0.006196
	1.955000	0.055048
	1.960000	0.074388
	1.965000	0.009921
	1.970000	-0.006196
	1.975000	0.061495
	1.980000	0.074388
	1.985000	0.000251
	1.990000	-0.002973
	1.995000	0.061495
	2.000000	0.084058
	2.005000	0.016368
	2.010000	0.006697
	2.015000	0.071165
	2.020000	0.090505
	2.025000	0.026038
	2.030000	0.019591
	2.035000	0.093728
	2.040000	0.106622
	2.045000	0.038931
	2.050000	0.026038
	2.055000	0.109845
	2.060000	0.116292
	2.065000	0.067941
	2.070000	0.058271
	2.075000	0.132408
	2.080000	0.161419
	2.085000	0.096952
	2.090000	0.093728
	2.095000	0.174312
	2.100000	0.200099
	2.105000	0.142079
	2.110000	0.138855
	2.115000	0.209769
	2.120000	0.238779
	2.125000	0.167865
	2.130000	0.161419
	2.135000	0.245226
	2.140000	0.267790
	2.145000	0.200099
	2.150000	0.193652
	2.155000	0.277460
	2.160000	0.290353
	2.165000	0.225886
	2.170000	0.225886
	2.175000	0.306470
	2.180000	0.319363
	2.185000	0.251673
	2.190000	0.242003
	2.195000	0.316140
	2.200000	0.338703
	2.205000	0.271013
	2.210000	0.267790
	2.215000	0.345150
	2.220000	0.358044
	2.225000	0.290353
	2.230000	0.277460
	2.235000	0.354820
	2.240000	0.367714
	2.245000	0.300023
	2.250000	0.290353
	2.255000	0.364490
	2.260000	0.374160
	2.265000	0.303247
	2.270000	0.293576
	2.275000	0.374160
	2.280000	0.377384
	2.285000	0.303247
	2.290000	0.303247
	2.295000	0.374160
	2.300000	0.387054
	2.305000	0.316140
	2.310000	0.312917
	2.315000	0.383830
	2.320000	0.383830
	2.325000	0.319363
	2.330000	0.312917
	2.335000	0.387054
	2.340000	0.399947
	2.345000	0.335480
	2.350000	0.325810
	2.355000	0.390277
	2.360000	0.406394
	2.365000	0.341927
	2.370000	0.335480
	2.375000	0.409617
	2.380000	0.422511
	2.385000	0.345150
	2.390000	0.338703
	2.395000	0.422511
	2.400000	0.419287
	2.405000	0.358044
	2.410000	0.358044
	2.415000	0.425734
	2.420000	0.432181
	2.425000	0.364490
	2.430000	0.367714
	2.435000	0.435404
	2.440000	0.445074
	2.445000	0.374160
	2.450000	0.374160
	2.455000	0.441851
	2.460000	0.451521
	2.465000	0.377384
	2.470000	0.380607
	2.475000	0.451521
	2.480000	0.464414
	2.485000	0.393501
	2.490000	0.387054
	2.495000	0.461191
	2.500000	0.464414
	2.505000	0.396724
	2.510000	0.390277
	2.515000	0.467638
	2.520000	0.470861
	2.525000	0.399947
	2.530000	0.396724
	2.535000	0.470861
	2.540000	0.480531
	2.545000	0.409617
	2.550000	0.399947
	2.555000	0.474085
	2.560000	0.483755
	2.565000	0.412841
	2.570000	0.406394
	2.575000	0.483755
	2.580000	0.480531
	2.585000	0.416064
	2.590000	0.419287
	2.595000	0.483755
	2.600000	0.486978
	2.605000	0.412841
	2.610000	0.412841
	2.615000	0.490201
	2.620000	0.496648
	2.625000	0.425734
	2.630000	0.422511
	2.635000	0.490201
	2.640000	0.493425
	2.645000	0.425734
	2.650000	0.432181
	2.655000	0.490201
	2.660000	0.499871
	2.665000	0.425734
	2.670000	0.432181
	2.675000	0.493425
	2.680000	0.503095
	2.685000	0.432181
	2.690000	0.419287
	2.695000	0.490201
	2.700000	0.496648
	2.705000	0.425734
	2.710000	0.425734
	2.715000	0.483755
	2.720000	0.486978
	2.725000	0.409617
	2.730000	0.409617
	2.735000	0.486978
	2.740000	0.483755
	2.745000	0.412841
	2.750000	0.416064
	2.755000	0.486978
	2.760000	0.477308
	2.765000	0.409617
	2.770000	0.409617
	2.775000	0.477308
	2.780000	0.477308
	2.785000	0.409617
	2.790000	0.406394
	2.795000	0.480531
	2.800000	0.477308
	2.805000	0.406394
	2.810000	0.403171
	2.815000	0.470861
	2.820000	0.461191
	2.825000	0.399947
	2.830000	0.403171
	2.835000	0.470861
	2.840000	0.470861
	2.845000	0.396724
	2.850000	0.403171
	2.855000	0.474085
	2.860000	0.474085
	2.865000	0.399947
	2.870000	0.399947
	2.875000	0.461191
	2.880000	0.464414
	2.885000	0.396724
	2.890000	0.403171
	2.895000	0.467638
	2.900000	0.470861
	2.905000	0.403171
	2.910000	0.409617
	2.915000	0.470861
	2.920000	0.474085
	2.925000	0.406394
	2.930000	0.406394
	2.935000	0.470861
	2.940000	0.474085
	2.945000	0.399947
	2.950000	0.403171
	2.955000	0.480531
	2.960000	0.470861
	2.965000	0.406394
	2.970000	0.399947
	2.975000	0.480531
	2.980000	0.477308
	2.985000	0.409617
	2.990000	0.409617
	2.995000	0.480531
	3.000000	0.477308
	3.005000	0.409617
	3.010000	0.412841
	3.015000	0.483755
	3.020000	0.477308
	3.025000	0.409617
	3.030000	0.412841
	3.035000	0.493425
	3.040000	0.483755
	3.045000	0.416064
	3.050000	0.409617
	3.055000	0.480531
	3.060000	0.490201
	3.065000	0.409617
	3.070000	0.412841
	3.075000	0.483755
	3.080000	0.486978
	3.085000	0.412841
	3.090000	0.422511
	3.095000	0.493425
	3.100000	0.486978
	3.105000	0.412841
	3.110000	0.416064
	3.115000	0.490201
	3.120000	0.483755
	3.125000	0.412841
	3.130000	0.422511
	3.135000	0.496648
	3.140000	0.490201
	3.145000	0.419287
	3.150000	0.425734
	3.155000	0.486978
	3.160000	0.490201
	3.165000	0.416064
	3.170000	0.419287
	3.175000	0.483755
	3.180000	0.486978
	3.185000	0.409617
	3.190000	0.419287
	3.195000	0.490201
	3.200000	0.483755
	3.205000	0.409617
	3.210000	0.406394
	3.215000	0.483755
	3.220000	0.474085
	3.225000	0.396724
	3.230000	0.403171
	3.235000	0.461191
	3.240000	0.457968
	3.245000	0.383830
	3.250000	0.380607
	3.255000	0.451521
	3.260000	0.438628
	3.265000	0.354820
	3.270000	0.364490
	3.275000	0.428957
	3.280000	0.425734
	3.285000	0.341927
	3.290000	0.351597
	3.295000	0.406394
	3.300000	0.409617
	3.305000	0.332257
	3.310000	0.338703
	3.315000	0.412841
	3.320000	0.403171
	3.325000	0.325810
	3.330000	0.332257
	3.335000	0.403171
	3.340000	0.396724
	3.345000	0.322587
	3.350000	0.332257
	3.355000	0.396724
	3.360000	0.399947
	3.365000	0.316140
	3.370000	0.329033
	3.375000	0.393501
	3.380000	0.390277
	3.385000	0.312917
	3.390000	0.316140
	3.395000	0.390277
	3.400000	0.380607
	3.405000	0.312917
	3.410000	0.329033
	3.415000	0.393501
	3.420000	0.387054
	3.425000	0.316140
	3.430000	0.335480
	3.435000	0.399947
	3.440000	0.396724
	3.445000	0.332257
	3.450000	0.345150
	3.455000	0.416064
	3.460000	0.403171
	3.465000	0.329033
	3.470000	0.345150
	3.475000	0.422511
	3.480000	0.412841
	3.485000	0.341927
	3.490000	0.354820
	3.495000	0.428957
	3.500000	0.419287
	3.505000	0.351597
	3.510000	0.358044
	3.515000	0.422511
	3.520000	0.419287
	3.525000	0.348374
	3.530000	0.354820
	3.535000	0.425734
	3.540000	0.419287
	3.545000	0.338703
	3.550000	0.364490
	3.555000	0.425734
	3.560000	0.412841
	3.565000	0.345150
	3.570000	0.361267
	3.575000	0.422511
	3.580000	0.422511
	3.585000	0.354820
	3.590000	0.358044
	3.595000	0.428957
	3.600000	0.419287
	3.605000	0.345150
	3.610000	0.354820
	3.615000	0.435404
	3.620000	0.416064
	3.625000	0.354820
	3.630000	0.370937
	3.635000	0.428957
	3.640000	0.419287
	3.645000	0.348374
	3.650000	0.364490
	3.655000	0.432181
	3.660000	0.425734
	3.665000	0.354820
	3.670000	0.367714
	3.675000	0.441851
	3.680000	0.422511
	3.685000	0.354820
	3.690000	0.374160
	3.695000	0.445074
	3.700000	0.428957
	3.705000	0.354820
	3.710000	0.374160
	3.715000	0.451521
	3.720000	0.432181
	3.725000	0.361267
	3.730000	0.374160
	3.735000	0.438628
	3.740000	0.425734
	3.745000	0.361267
	3.750000	0.383830
	3.755000	0.451521
	3.760000	0.454744
	3.765000	0.393501
	3.770000	0.422511
	3.775000	0.506318
	3.780000	0.519212
	3.785000	0.470861
	3.790000	0.512765
	3.795000	0.615912
	3.800000	0.638476
	3.805000	0.606242
	3.810000	0.661039
	3.815000	0.757740
	3.820000	0.773857
	3.825000	0.744847
	3.830000	0.783527
	3.835000	0.873781
	3.840000	0.886674
	3.845000	0.831877
	3.850000	0.870558
	3.855000	0.951142
	3.860000	0.951142
	3.865000	0.896345
	3.870000	0.938248
	3.875000	1.005939
	3.880000	1.015609
	3.885000	0.957588
	3.890000	0.996269
	3.895000	1.076853
	3.900000	1.076853
	3.905000	1.025279
	3.910000	1.067183
	3.915000	1.147767
	3.920000	1.141320
	3.925000	1.099416
	3.930000	1.134873
	3.935000	1.215457
	3.940000	1.212234
	3.945000	1.160660
	3.950000	1.189670
	3.955000	1.260584
	3.960000	1.267031
	3.965000	1.209010
	3.970000	1.238021
	3.975000	1.305711
	3.980000	1.308934
	3.985000	1.254137
	3.990000	1.283148
	3.995000	1.347615
	4.000000	1.344391
	4.005000	1.292818
	4.010000	1.325051
	4.015000	1.395965
	4.020000	1.386295
	4.025000	1.331498
	4.030000	1.357285
	4.035000	1.421752
	4.040000	1.408859
	4.045000	1.350838
	4.050000	1.370178
	4.055000	1.431422
	4.060000	1.424975
	4.065000	1.366955
	4.070000	1.376625
	4.075000	1.434645
	4.080000	1.415305
	4.085000	1.357285
	4.090000	1.363732
	4.095000	1.418529
	4.100000	1.395965
	4.105000	1.334721
	4.110000	1.354062
	4.115000	1.405635
	4.120000	1.392742
	4.125000	1.331498
	4.130000	1.350838
	4.135000	1.408859
	4.140000	1.379848
	4.145000	1.321828
	4.150000	1.341168
	4.155000	1.402412
	4.160000	1.379848
	4.165000	1.312158
	4.170000	1.331498
	4.175000	1.389518
	4.180000	1.373402
	4.185000	1.312158
	4.190000	1.321828
	4.195000	1.383072
	4.200000	1.357285
	4.205000	1.302488
	4.210000	1.315381
	4.215000	1.383072
	4.220000	1.357285
	4.225000	1.296041
	4.230000	1.315381
	4.235000	1.379848
	4.240000	1.350838
	4.245000	1.292818
	4.250000	1.315381
	4.255000	1.366955
	4.260000	1.350838
	4.265000	1.283148
	4.270000	1.296041
	4.275000	1.363732
	4.280000	1.337945
	4.285000	1.279924
	4.290000	1.299264
	4.295000	1.347615
	4.300000	1.331498
	4.305000	1.270254
	4.310000	1.289594
	4.315000	1.344391
	4.320000	1.318605
	4.325000	1.257361
	4.330000	1.273478
	4.335000	1.331498
	4.340000	1.302488
	4.345000	1.244467
	4.350000	1.250914
	4.355000	1.308934
	4.360000	1.276701
	4.365000	1.221904
	4.370000	1.225127
	4.375000	1.267031
	4.380000	1.241244
	4.385000	1.157437
	4.390000	1.170330
	4.395000	1.199340
	4.400000	1.167107
	4.405000	1.083299
	4.410000	1.086523
	4.415000	1.112310
	4.420000	1.070406
	4.425000	0.973705
	4.430000	0.970482
	4.435000	0.986599
	4.440000	0.931801
	4.445000	0.835101
	4.450000	0.815761
	4.455000	0.825431
	4.460000	0.767410
	4.465000	0.648146
	4.470000	0.615912
	4.475000	0.619136
	4.480000	0.541775
	4.485000	0.432181
	4.490000	0.409617
	4.495000	0.435404
	4.500000	0.377384
	4.505000	0.274236
	4.510000	0.280683
	4.515000	0.319363
	4.520000	0.280683
	4.525000	0.209769
	4.530000	0.222663
	4.535000	0.277460
	4.540000	0.258119
	4.545000	0.174312
	4.550000	0.206546
	4.555000	0.258119
	4.560000	0.229109
	4.565000	0.161419
	4.570000	0.190429
	4.575000	0.248449
	4.580000	0.216216
	4.585000	0.145302
	4.590000	0.177536
	4.595000	0.235556
	4.600000	0.206546
	4.605000	0.142079
	4.610000	0.171089
	4.615000	0.229109
	4.620000	0.206546
	4.625000	0.135632
	4.630000	0.174312
	4.635000	0.232333
	4.640000	0.200099
	4.645000	0.148525
	4.650000	0.167865
	4.655000	0.229109
	4.660000	0.209769
	4.665000	0.142079
	4.670000	0.174312
	4.675000	0.238779
	4.680000	0.219439
	4.685000	0.167865
	4.690000	0.193652
	4.695000	0.258119
	4.700000	0.238779
	4.705000	0.177536
	4.710000	0.209769
	4.715000	0.283906
	4.720000	0.261343
	4.725000	0.206546
	4.730000	0.235556
	4.735000	0.303247
	4.740000	0.283906
	4.745000	0.229109
	4.750000	0.261343
	4.755000	0.329033
	4.760000	0.312917
	4.765000	0.254896
	4.770000	0.283906
	4.775000	0.354820
	4.780000	0.348374
	4.785000	0.293576
	4.790000	0.319363
	4.795000	0.393501
	4.800000	0.374160
	4.805000	0.319363
	4.810000	0.354820
	4.815000	0.422511
	4.820000	0.409617
	4.825000	0.354820
	4.830000	0.387054
	4.835000	0.457968
	4.840000	0.438628
	4.845000	0.383830
	4.850000	0.422511
	4.855000	0.493425
	4.860000	0.474085
	4.865000	0.412841
	4.870000	0.451521
	4.875000	0.509541
	4.880000	0.493425
	4.885000	0.435404
	4.890000	0.464414
	4.895000	0.522435
	4.900000	0.503095
	4.905000	0.445074
	4.910000	0.486978
	4.915000	0.538552
	4.920000	0.512765
	4.925000	0.461191
	4.930000	0.486978
	4.935000	0.544998
	4.940000	0.528882
	4.945000	0.474085
	4.950000	0.499871
	4.955000	0.567562
	4.960000	0.541775
	4.965000	0.483755
	4.970000	0.515988
	4.975000	0.577232
	4.980000	0.548222
	4.985000	0.490201
	4.990000	0.519212
	4.995000	0.583679
	5.000000	0.554668
	5.005000	0.496648
	5.010000	0.532105
	5.015000	0.593349
	5.020000	0.564339
	5.025000	0.506318
	5.030000	0.535328
	5.035000	0.599796
	5.040000	0.574009
	5.045000	0.506318
	5.050000	0.541775
	5.055000	0.599796
	5.060000	0.567562
	5.065000	0.509541
	5.070000	0.538552
	5.075000	0.596572
	5.080000	0.574009
	5.085000	0.512765
	5.090000	0.548222
	5.095000	0.596572
	5.100000	0.567562
	5.105000	0.503095
	5.110000	0.522435
	5.115000	0.590125
	5.120000	0.551445
	5.125000	0.486978
	5.130000	0.519212
	5.135000	0.577232
	5.140000	0.544998
	5.145000	0.483755
	5.150000	0.509541
	5.155000	0.567562
	5.160000	0.528882
	5.165000	0.464414
	5.170000	0.496648
	5.175000	0.554668
	5.180000	0.532105
	5.185000	0.464414
	5.190000	0.496648
	5.195000	0.557892
	5.200000	0.522435
	5.205000	0.467638
	5.210000	0.493425
	5.215000	0.551445
	5.220000	0.525658
	5.225000	0.461191
	5.230000	0.493425
	5.235000	0.554668
	5.240000	0.525658
	5.245000	0.451521
	5.250000	0.496648
	5.255000	0.548222
	5.260000	0.512765
	5.265000	0.454744
	5.270000	0.493425
	5.275000	0.544998
	5.280000	0.515988
	5.285000	0.451521
	5.290000	0.486978
	5.295000	0.544998
	5.300000	0.512765
	5.305000	0.454744
	5.310000	0.483755
	5.315000	0.541775
	5.320000	0.509541
	5.325000	0.448298
	5.330000	0.483755
	5.335000	0.544998
	5.340000	0.512765
	5.345000	0.448298
	5.350000	0.483755
	5.355000	0.538552
	5.360000	0.509541
	5.365000	0.448298
	5.370000	0.490201
	5.375000	0.541775
	5.380000	0.509541
	5.385000	0.451521
	5.390000	0.486978
	5.395000	0.551445
	5.400000	0.512765
	5.405000	0.454744
	5.410000	0.496648
	5.415000	0.557892
	5.420000	0.522435
	5.425000	0.464414
	5.430000	0.503095
	5.435000	0.561115
	5.440000	0.522435
	5.445000	0.467638
	5.450000	0.509541
	5.455000	0.567562
	5.460000	0.528882
	5.465000	0.474085
	5.470000	0.515988
	5.475000	0.570785
	5.480000	0.541775
	5.485000	0.483755
	5.490000	0.525658
	5.495000	0.593349
	5.500000	0.551445
	5.505000	0.499871
	5.510000	0.535328
	5.515000	0.603019
	5.520000	0.561115
	5.525000	0.509541
	5.530000	0.551445
	5.535000	0.609466
	5.540000	0.574009
	5.545000	0.522435
	5.550000	0.554668
	5.555000	0.619136
	5.560000	0.574009
	5.565000	0.519212
	5.570000	0.567562
	5.575000	0.615912
	5.580000	0.577232
	5.585000	0.519212
	5.590000	0.557892
	5.595000	0.612689
	5.600000	0.574009
	5.605000	0.519212
	5.610000	0.561115
	5.615000	0.625582
	5.620000	0.583679
	5.625000	0.519212
	5.630000	0.564339
	5.635000	0.619136
	5.640000	0.574009
	5.645000	0.528882
	5.650000	0.567562
	5.655000	0.625582
	5.660000	0.586902
	5.665000	0.532105
	5.670000	0.570785
	5.675000	0.632029
	5.680000	0.593349
	5.685000	0.535328
	5.690000	0.577232
	5.695000	0.635252
	5.700000	0.596572
	5.705000	0.551445
	5.710000	0.590125
	5.715000	0.648146
	5.720000	0.609466
	5.725000	0.544998
	5.730000	0.599796
	5.735000	0.654593
	5.740000	0.619136
	5.745000	0.561115
	5.750000	0.612689
	5.755000	0.664263
	5.760000	0.625582
	5.765000	0.567562
	5.770000	0.615912
	5.775000	0.673933
	5.780000	0.632029
	5.785000	0.577232
	5.790000	0.615912
	5.795000	0.670709
	5.800000	0.635252
	5.805000	0.580455
	5.810000	0.622359
	5.815000	0.673933
	5.820000	0.641699
	5.825000	0.580455
	5.830000	0.635252
	5.835000	0.680379
	5.840000	0.644923
	5.845000	0.583679
	5.850000	0.635252
	5.855000	0.690050
	5.860000	0.648146
	5.865000	0.593349
	5.870000	0.644923
	5.875000	0.686826
	5.880000	0.651369
	5.885000	0.599796
	5.890000	0.641699
	5.895000	0.686826
	5.900000	0.657816
	5.905000	0.593349
	5.910000	0.641699
	5.915000	0.686826
	5.920000	0.651369
	5.925000	0.586902
	5.930000	0.638476
	5.935000	0.690050
	5.940000	0.644923
	5.945000	0.596572
	5.950000	0.641699
	5.955000	0.683603
	5.960000	0.648146
	5.965000	0.586902
	5.970000	0.635252
	5.975000	0.690050
	5.980000	0.648146
	5.985000	0.590125
	5.990000	0.638476
	5.995000	0.683603
	6.000000	0.644923
	6.005000	0.586902
	6.010000	0.638476
	6.015000	0.683603
	6.020000	0.641699
	6.025000	0.580455
	6.030000	0.628806
	6.035000	0.683603
	6.040000	0.635252
	6.045000	0.580455
	6.050000	0.628806
	6.055000	0.680379
	6.060000	0.644923
	6.065000	0.574009
	6.070000	0.625582
	6.075000	0.677156
	6.080000	0.635252
	6.085000	0.574009
	6.090000	0.625582
	6.095000	0.667486
	6.100000	0.628806
	6.105000	0.570785
	6.110000	0.619136
	6.115000	0.677156
	6.120000	0.628806
	6.125000	0.570785
	6.130000	0.619136
	6.135000	0.670709
	6.140000	0.628806
	6.145000	0.574009
	6.150000	0.625582
	6.155000	0.677156
	6.160000	0.632029
	6.165000	0.583679
	6.170000	0.628806
	6.175000	0.673933
	6.180000	0.635252
	6.185000	0.580455
	6.190000	0.628806
	6.195000	0.683603
	6.200000	0.638476
	6.205000	0.586902
	6.210000	0.628806
	6.215000	0.683603
	6.220000	0.638476
	6.225000	0.593349
	6.230000	0.632029
	6.235000	0.686826
	6.240000	0.644923
	6.245000	0.580455
	6.250000	0.632029
	6.255000	0.683603
	6.260000	0.648146
	6.265000	0.590125
	6.270000	0.635252
	6.275000	0.686826
	6.280000	0.641699
	6.285000	0.593349
	6.290000	0.635252
	6.295000	0.690050
	6.300000	0.644923
	6.305000	0.580455
	6.310000	0.632029
	6.315000	0.683603
	6.320000	0.628806
	6.325000	0.583679
	6.330000	0.632029
	6.335000	0.677156
	6.340000	0.628806
	6.345000	0.570785
	6.350000	0.622359
	6.355000	0.677156
	6.360000	0.625582
	6.365000	0.567562
	6.370000	0.625582
	6.375000	0.670709
	6.380000	0.622359
	6.385000	0.570785
	6.390000	0.612689
	6.395000	0.661039
	6.400000	0.619136
	6.405000	0.557892
	6.410000	0.615912
	6.415000	0.661039
	6.420000	0.606242
	6.425000	0.561115
	6.430000	0.606242
	6.435000	0.654593
	6.440000	0.612689
	6.445000	0.557892
	6.450000	0.603019
	6.455000	0.651369
	6.460000	0.606242
	6.465000	0.557892
	6.470000	0.593349
	6.475000	0.648146
	6.480000	0.596572
	6.485000	0.548222
	6.490000	0.599796
	6.495000	0.654593
	6.500000	0.593349
	6.505000	0.544998
	6.510000	0.596572
	6.515000	0.648146
	6.520000	0.599796
	6.525000	0.544998
	6.530000	0.596572
	6.535000	0.644923
	6.540000	0.593349
	6.545000	0.544998
	6.550000	0.596572
	6.555000	0.644923
	6.560000	0.593349
	6.565000	0.541775
	6.570000	0.596572
	6.575000	0.644923
	6.580000	0.596572
	6.585000	0.548222
	6.590000	0.603019
	6.595000	0.641699
	6.600000	0.593349
	6.605000	0.544998
	6.610000	0.593349
	6.615000	0.644923
	6.620000	0.586902
	6.625000	0.538552
	6.630000	0.596572
	6.635000	0.641699
	6.640000	0.590125
	6.645000	0.544998
	6.650000	0.586902
	6.655000	0.635252
	6.660000	0.586902
	6.665000	0.538552
	6.670000	0.586902
	6.675000	0.638476
	6.680000	0.580455
	6.685000	0.538552
	6.690000	0.596572
	6.695000	0.638476
	6.700000	0.583679
	6.705000	0.538552
	6.710000	0.583679
	6.715000	0.632029
	6.720000	0.583679
	6.725000	0.535328
	6.730000	0.593349
	6.735000	0.635252
	6.740000	0.583679
	6.745000	0.535328
	6.750000	0.593349
	6.755000	0.632029
	6.760000	0.583679
	6.765000	0.535328
	6.770000	0.583679
	6.775000	0.628806
	6.780000	0.577232
	6.785000	0.528882
	6.790000	0.580455
	6.795000	0.625582
	6.800000	0.567562
	6.805000	0.522435
	6.810000	0.570785
	6.815000	0.625582
	6.820000	0.567562
	6.825000	0.515988
	6.830000	0.574009
	6.835000	0.609466
	6.840000	0.551445
	6.845000	0.512765
	6.850000	0.564339
	6.855000	0.609466
	6.860000	0.551445
	6.865000	0.503095
	6.870000	0.561115
	6.875000	0.606242
	6.880000	0.548222
	6.885000	0.503095
	6.890000	0.557892
	6.895000	0.603019
	6.900000	0.544998
	6.905000	0.506318
	6.910000	0.554668
	6.915000	0.603019
	6.920000	0.551445
	6.925000	0.509541
	6.930000	0.567562
	6.935000	0.609466
	6.940000	0.548222
	6.945000	0.515988
	6.950000	0.564339
	6.955000	0.606242
	6.960000	0.561115
	6.965000	0.509541
	6.970000	0.567562
	6.975000	0.603019
	6.980000	0.557892
	6.985000	0.506318
	6.990000	0.567562
	6.995000	0.609466
	7.000000	0.554668
	7.005000	0.512765
	7.010000	0.567562
	7.015000	0.612689
	7.020000	0.564339
	7.025000	0.522435
	7.030000	0.567562
	7.035000	0.612689
	7.040000	0.554668
	7.045000	0.522435
	7.050000	0.574009
	7.055000	0.612689
	7.060000	0.561115
	7.065000	0.525658
	7.070000	0.577232
	7.075000	0.615912
	7.080000	0.561115
	7.085000	0.515988
	7.090000	0.570785
	7.095000	0.609466
	7.100000	0.557892
	7.105000	0.512765
	7.110000	0.577232
	7.115000	0.612689
	7.120000	0.557892
	7.125000	0.509541
	7.130000	0.564339
	7.135000	0.612689
	7.140000	0.570785
	7.145000	0.544998
	7.150000	0.622359
	7.155000	0.690050
	7.160000	0.670709
	7.165000	0.664263
	7.170000	0.757740
	7.175000	0.838324
	7.180000	0.818984
	7.185000	0.815761
	7.190000	0.902791
	7.195000	0.986599
	7.200000	0.967258
	7.205000	0.954365
	7.210000	1.031726
	7.215000	1.096193
	7.220000	1.060736
	7.225000	1.038172
	7.230000	1.105863
	7.235000	1.160660
	7.240000	1.121980
	7.245000	1.096193
	7.250000	1.167107
	7.255000	1.221904
	7.260000	1.170330
	7.265000	1.144543
	7.270000	1.212234
	7.275000	1.267031
	7.280000	1.228351
	7.285000	1.205787
	7.290000	1.273478
	7.295000	1.321828
	7.300000	1.286371
	7.305000	1.254137
	7.310000	1.318605
	7.315000	1.373402
	7.320000	1.318605
	7.325000	1.292818
	7.330000	1.344391
	7.335000	1.389518
	7.340000	1.341168
	7.345000	1.312158
	7.350000	1.363732
	7.355000	1.408859
	7.360000	1.357285
	7.365000	1.328275
	7.370000	1.376625
	7.375000	1.415305
	7.380000	1.370178
	7.385000	1.328275
	7.390000	1.386295
	7.395000	1.421752
	7.400000	1.376625
	7.405000	1.334721
	7.410000	1.386295
	7.415000	1.431422
	7.420000	1.376625
	7.425000	1.347615
	7.430000	1.389518
	7.435000	1.428199
	7.440000	1.383072
	7.445000	1.341168
	7.450000	1.399189
	7.455000	1.437869
	7.460000	1.376625
	7.465000	1.341168
	7.470000	1.395965
	7.475000	1.437869
	7.480000	1.379848
	7.485000	1.341168
	7.490000	1.402412
	7.495000	1.437869
	7.500000	1.386295
	7.505000	1.344391
	7.510000	1.399189
	7.515000	1.431422
	7.520000	1.379848
	7.525000	1.347615
	7.530000	1.399189
	7.535000	1.434645
	7.540000	1.370178
	7.545000	1.344391
	7.550000	1.392742
	7.555000	1.428199
	7.560000	1.370178
	7.565000	1.328275
	7.570000	1.376625
	7.575000	1.421752
	7.580000	1.363732
	7.585000	1.315381
	7.590000	1.370178
	7.595000	1.405635
	7.600000	1.347615
	7.605000	1.305711
	7.610000	1.366955
	7.615000	1.383072
	7.620000	1.337945
	7.625000	1.292818
	7.630000	1.341168
	7.635000	1.366955
	7.640000	1.312158
	7.645000	1.267031
	7.650000	1.302488
	7.655000	1.325051
	7.660000	1.263807
	7.665000	1.218680
	7.670000	1.260584
	7.675000	1.263807
	7.680000	1.196117
	7.685000	1.141320
	7.690000	1.167107
	7.695000	1.170330
	7.700000	1.102640
	7.705000	1.038172
	7.710000	1.057512
	7.715000	1.063959
	7.720000	0.970482
	7.725000	0.902791
	7.730000	0.925355
	7.735000	0.909238
	7.740000	0.812537
	7.745000	0.728730
	7.750000	0.738400
	7.755000	0.719060
	7.760000	0.609466
	7.765000	0.532105
	7.770000	0.532105
	7.775000	0.532105
	7.780000	0.432181
	7.785000	0.370937
	7.790000	0.399947
	7.795000	0.409617
	7.800000	0.335480
	7.805000	0.287130
	7.810000	0.325810
	7.815000	0.341927
	7.820000	0.290353
	7.825000	0.248449
	7.830000	0.303247
	7.835000	0.338703
	7.840000	0.277460
	7.845000	0.232333
	7.850000	0.300023
	7.855000	0.325810
	7.860000	0.277460
	7.865000	0.235556
	7.870000	0.303247
	7.875000	0.332257
	7.880000	0.271013
	7.885000	0.232333
	7.890000	0.296800
	7.895000	0.322587
	7.900000	0.264566
	7.905000	0.235556
	7.910000	0.296800
	7.915000	0.322587
	7.920000	0.261343
	7.925000	0.242003
	7.930000	0.306470
	7.935000	0.335480
	7.940000	0.287130
	7.945000	0.261343
	7.950000	0.325810
	7.955000	0.354820
	7.960000	0.303247
	7.965000	0.280683
	7.970000	0.338703
	7.975000	0.374160
	7.980000	0.322587
	7.985000	0.296800
	7.990000	0.354820
	7.995000	0.393501
	8.000000	0.348374
	8.005000	0.316140
	8.010000	0.387054
	8.015000	0.409617
	8.020000	0.361267
	8.025000	0.335480
	8.030000	0.393501
	8.035000	0.432181
	8.040000	0.364490
	8.045000	0.348374
	8.050000	0.409617
	8.055000	0.438628
	8.060000	0.390277
	8.065000	0.364490
	8.070000	0.428957
	8.075000	0.451521
	8.080000	0.399947
	8.085000	0.374160
	8.090000	0.438628
	8.095000	0.467638
	8.100000	0.406394
	8.105000	0.377384
	8.110000	0.454744
	8.115000	0.470861
	8.120000	0.416064
	8.125000	0.387054
	8.130000	0.454744
	8.135000	0.490201
	8.140000	0.428957
	8.145000	0.399947
	8.150000	0.464414
	8.155000	0.493425
	8.160000	0.425734
	8.165000	0.396724
	8.170000	0.470861
	8.175000	0.496648
	8.180000	0.422511
	8.185000	0.409617
	8.190000	0.467638
	8.195000	0.496648
	8.200000	0.435404
	8.205000	0.416064
	8.210000	0.470861
	8.215000	0.503095
	8.220000	0.432181
	8.225000	0.409617
	8.230000	0.470861
	8.235000	0.503095
	8.240000	0.435404
	8.245000	0.409617
	8.250000	0.467638
	8.255000	0.493425
	8.260000	0.438628
	8.265000	0.412841
	8.270000	0.470861
	8.275000	0.499871
	8.280000	0.435404
	8.285000	0.409617
	8.290000	0.474085
	8.295000	0.496648
	8.300000	0.432181
	8.305000	0.409617
	8.310000	0.467638
	8.315000	0.503095
	8.320000	0.438628
	8.325000	0.412841
	8.330000	0.477308
	8.335000	0.503095
	8.340000	0.428957
	8.345000	0.412841
	8.350000	0.480531
	8.355000	0.503095
	8.360000	0.438628
	8.365000	0.412841
	8.370000	0.480531
	8.375000	0.503095
	8.380000	0.438628
	8.385000	0.419287
	8.390000	0.486978
	8.395000	0.509541
	8.400000	0.438628
	8.405000	0.412841
	8.410000	0.483755
	8.415000	0.509541
	8.420000	0.451521
	8.425000	0.416064
	8.430000	0.493425
	8.435000	0.509541
	8.440000	0.445074
	8.445000	0.419287
	8.450000	0.490201
	8.455000	0.515988
	8.460000	0.454744
	8.465000	0.425734
	8.470000	0.493425
	8.475000	0.519212
	8.480000	0.451521
	8.485000	0.432181
	8.490000	0.506318
	8.495000	0.525658
	8.500000	0.464414
	8.505000	0.435404
	8.510000	0.499871
	8.515000	0.532105
	8.520000	0.464414
	8.525000	0.445074
	8.530000	0.512765
	8.535000	0.538552
	8.540000	0.470861
	8.545000	0.441851
	8.550000	0.509541
	8.555000	0.541775
	8.560000	0.470861
	8.565000	0.445074
	8.570000	0.528882
	8.575000	0.538552
	8.580000	0.470861
	8.585000	0.451521
	8.590000	0.515988
	8.595000	0.541775
	8.600000	0.480531
	8.605000	0.457968
	8.610000	0.528882
	8.615000	0.541775
	8.620000	0.474085
	8.625000	0.454744
	8.630000	0.532105
	8.635000	0.551445
	8.640000	0.483755
	8.645000	0.464414
	8.650000	0.532105
	8.655000	0.554668
	8.660000	0.493425
	8.665000	0.470861
	8.670000	0.535328
	8.675000	0.561115
	8.680000	0.496648
	8.685000	0.470861
	8.690000	0.541775
	8.695000	0.561115
	8.700000	0.499871
	8.705000	0.480531
	8.710000	0.541775
	8.715000	0.564339
	8.720000	0.496648
	8.725000	0.480531
	8.730000	0.551445
	8.735000	0.567562
	8.740000	0.499871
	8.745000	0.496648
	8.750000	0.557892
	8.755000	0.570785
	8.760000	0.512765
	8.765000	0.483755
	8.770000	0.561115
	8.775000	0.580455
	8.780000	0.509541
	8.785000	0.493425
	8.790000	0.554668
	8.795000	0.577232
	8.800000	0.509541
	8.805000	0.496648
	8.810000	0.561115
	8.815000	0.580455
	8.820000	0.512765
	8.825000	0.503095
	8.830000	0.567562
	8.835000	0.583679
	8.840000	0.515988
	8.845000	0.499871
	8.850000	0.574009
	8.855000	0.593349
	8.860000	0.522435
	8.865000	0.503095
	8.870000	0.574009
	8.875000	0.590125
	8.880000	0.532105
	8.885000	0.506318
	8.890000	0.577232
	8.895000	0.593349
	8.900000	0.528882
	8.905000	0.509541
	8.910000	0.580455
	8.915000	0.593349
	8.920000	0.525658
	8.925000	0.512765
	8.930000	0.583679
	8.935000	0.603019
	8.940000	0.538552
	8.945000	0.519212
	8.950000	0.590125
	8.955000	0.609466
	8.960000	0.544998
	8.965000	0.532105
	8.970000	0.596572
	8.975000	0.615912
	8.980000	0.548222
	8.985000	0.528882
	8.990000	0.603019
	8.995000	0.615912
	9.000000	0.551445
	9.005000	0.535328
	9.010000	0.612689
	9.015000	0.625582
	9.020000	0.564339
	9.025000	0.548222
	9.030000	0.612689
	9.035000	0.632029
	9.040000	0.564339
	9.045000	0.541775
	9.050000	0.615912
	9.055000	0.641699
	9.060000	0.564339
	9.065000	0.554668
	9.070000	0.625582
	9.075000	0.641699
	9.080000	0.574009
	9.085000	0.557892
	9.090000	0.632029
	9.095000	0.644923
	9.100000	0.580455
	9.105000	0.567562
	9.110000	0.635252
	9.115000	0.654593
	9.120000	0.583679
	9.125000	0.574009
	9.130000	0.641699
	9.135000	0.661039
	9.140000	0.593349
	9.145000	0.567562
	9.150000	0.641699
	9.155000	0.657816
	9.160000	0.596572
	9.165000	0.583679
	9.170000	0.651369
	9.175000	0.664263
	9.180000	0.596572
	9.185000	0.583679
	9.190000	0.654593
	9.195000	0.677156
	9.200000	0.599796
	9.205000	0.586902
	9.210000	0.657816
	9.215000	0.677156
	9.220000	0.606242
	9.225000	0.593349
	9.230000	0.657816
	9.235000	0.683603
	9.240000	0.609466
	9.245000	0.596572
	9.250000	0.673933
	9.255000	0.680379
	9.260000	0.612689
	9.265000	0.609466
	9.270000	0.677156
	9.275000	0.690050
	9.280000	0.625582
	9.285000	0.615912
	9.290000	0.683603
	9.295000	0.693273
	9.300000	0.625582
	9.305000	0.619136
	9.310000	0.677156
	9.315000	0.690050
	9.320000	0.619136
	9.325000	0.609466
	9.330000	0.680379
	9.335000	0.696496
	9.340000	0.622359
	9.345000	0.612689
	9.350000	0.686826
	9.355000	0.690050
	9.360000	0.625582
	9.365000	0.619136
	9.370000	0.680379
	9.375000	0.696496
	9.380000	0.628806
	9.385000	0.619136
	9.390000	0.683603
	9.395000	0.690050
	9.400000	0.625582
	9.405000	0.619136
	9.410000	0.683603
	9.415000	0.696496
	9.420000	0.638476
	9.425000	0.619136
	9.430000	0.696496
	9.435000	0.709390
	9.440000	0.641699
	9.445000	0.648146
	9.450000	0.715836
	9.455000	0.741623
	9.460000	0.673933
	9.465000	0.664263
	9.470000	0.744847
	9.475000	0.757740
	9.480000	0.696496
	9.485000	0.702943
	9.490000	0.764187
	9.495000	0.780304
	9.500000	0.712613
	9.505000	0.712613
	9.510000	0.783527
	9.515000	0.806090
	9.520000	0.738400
	9.525000	0.731953
	9.530000	0.799644
	9.535000	0.815761
	9.540000	0.741623
	9.545000	0.741623
	9.550000	0.806090
	9.555000	0.815761
	9.560000	0.754517
	9.565000	0.741623
	9.570000	0.809314
	9.575000	0.825431
	9.580000	0.751293
	9.585000	0.748070
	9.590000	0.815761
	9.595000	0.822207
	9.600000	0.744847
	9.605000	0.731953
	9.610000	0.812537
	9.615000	0.812537
	9.620000	0.744847
	9.625000	0.738400
	9.630000	0.806090
	9.635000	0.809314
	9.640000	0.741623
	9.645000	0.731953
	9.650000	0.812537
	9.655000	0.812537
	9.660000	0.744847
	9.665000	0.735177
	9.670000	0.799644
	9.675000	0.812537
	9.680000	0.744847
	9.685000	0.738400
	9.690000	0.802867
	9.695000	0.806090
	9.700000	0.738400
	9.705000	0.731953
	9.710000	0.793197
	9.715000	0.806090
	9.720000	0.741623
	9.725000	0.728730
	9.730000	0.783527
	9.735000	0.796420
	9.740000	0.722283
	9.745000	0.719060
	9.750000	0.783527
	9.755000	0.783527
	9.760000	0.709390
	9.765000	0.709390
	9.770000	0.773857
	9.775000	0.780304
	9.780000	0.693273
	9.785000	0.702943
	9.790000	0.764187
	9.795000	0.760963
	9.800000	0.699720
	9.805000	0.693273
	9.810000	0.751293
	9.815000	0.751293
	9.820000	0.693273
	9.825000	0.690050
	9.830000	0.744847
	9.835000	0.751293
	9.840000	0.673933
	9.845000	0.670709
	9.850000	0.735177
	9.855000	0.731953
	9.860000	0.673933
	9.865000	0.661039
	9.870000	0.728730
	9.875000	0.731953
	9.880000	0.657816
	9.885000	0.651369
	9.890000	0.715836
	9.895000	0.715836
	9.900000	0.648146
	9.905000	0.648146
	9.910000	0.702943
	9.915000	0.712613
	9.920000	0.641699
	9.925000	0.635252
	9.930000	0.702943
	9.935000	0.702943
	9.940000	0.638476
	9.945000	0.625582
	9.950000	0.696496
	9.955000	0.696496
	9.960000	0.628806
	9.965000	0.622359
	9.970000	0.683603
	9.975000	0.690050
	9.980000	0.609466
	9.985000	0.615912
	9.990000	0.677156
	9.995000	0.670709
	10.000000	0.603019
	10.005000	0.599796
	10.010000	0.664263
	10.015000	0.657816
	10.020000	0.590125
	10.025000	0.580455
	10.030000	0.644923
	10.035000	0.644923
	10.040000	0.580455
	10.045000	0.564339
	10.050000	0.628806
	10.055000	0.628806
	10.060000	0.554668
	10.065000	0.554668
	10.070000	0.619136
	10.075000	0.612689
	10.080000	0.544998
	10.085000	0.538552
	10.090000	0.603019
	10.095000	0.603019
	10.100000	0.525658
	10.105000	0.532105
	10.110000	0.599796
	10.115000	0.590125
	10.120000	0.522435
	10.125000	0.519212
	10.130000	0.586902
	10.135000	0.583679
	10.140000	0.515988
	10.145000	0.509541
	10.150000	0.577232
	10.155000	0.580455
	10.160000	0.506318
	10.165000	0.512765
	10.170000	0.580455
	10.175000	0.580455
	10.180000	0.509541
	10.185000	0.509541
	10.190000	0.577232
	10.195000	0.577232
	10.200000	0.515988
	10.205000	0.506318
	10.210000	0.580455
	10.215000	0.580455
	10.220000	0.503095
	10.225000	0.515988
	10.230000	0.580455
	10.235000	0.586902
	10.240000	0.512765
	10.245000	0.519212
	10.250000	0.586902
	10.255000	0.586902
	10.260000	0.515988
	10.265000	0.525658
	10.270000	0.590125
	10.275000	0.593349
	10.280000	0.522435
	10.285000	0.532105
	10.290000	0.599796
	10.295000	0.596572
	10.300000	0.522435
	10.305000	0.525658
	10.310000	0.599796
	10.315000	0.603019
	10.320000	0.525658
	10.325000	0.528882
	10.330000	0.596572
	10.335000	0.586902
	10.340000	0.512765
	10.345000	0.522435
	10.350000	0.590125
	10.355000	0.580455
	10.360000	0.503095
	10.365000	0.503095
	10.370000	0.574009
	10.375000	0.564339
	10.380000	0.496648
	10.385000	0.503095
	10.390000	0.574009
	10.395000	0.574009
	10.400000	0.512765
	10.405000	0.515988
	10.410000	0.586902
	10.415000	0.583679
	10.420000	0.519212
	10.425000	0.532105
	10.430000	0.606242
	10.435000	0.596572
	10.440000	0.525658
	10.445000	0.548222
	10.450000	0.619136
	10.455000	0.609466
	10.460000	0.551445
	10.465000	0.551445
	10.470000	0.619136
	10.475000	0.619136
	10.480000	0.551445
	10.485000	0.557892
	10.490000	0.625582
	10.495000	0.635252
	10.500000	0.554668
	10.505000	0.564339
	10.510000	0.632029
	10.515000	0.632029
	10.520000	0.557892
	10.525000	0.577232
	10.530000	0.638476
	10.535000	0.632029
	10.540000	0.567562
	10.545000	0.567562
	10.550000	0.638476
	10.555000	0.632029
	10.560000	0.554668
	10.565000	0.557892
	10.570000	0.628806
	10.575000	0.606242
	10.580000	0.532105
	10.585000	0.538552
	10.590000	0.606242
	10.595000	0.609466
	10.600000	0.557892
	10.605000	0.596572
	10.610000	0.702943
	10.615000	0.738400
	10.620000	0.709390
	10.625000	0.760963
	10.630000	0.870558
	10.635000	0.899568
	10.640000	0.867334
	10.645000	0.918908
	10.650000	1.022056
	10.655000	1.031726
	10.660000	0.983375
	10.665000	1.022056
	10.670000	1.092969
	10.675000	1.105863
	10.680000	1.054289
	10.685000	1.076853
	10.690000	1.147767
	10.695000	1.160660
	10.700000	1.102640
	10.705000	1.128426
	10.710000	1.202564
	10.715000	1.205787
	10.720000	1.147767
	10.725000	1.163883
	10.730000	1.241244
	10.735000	1.244467
	10.740000	1.183223
	10.745000	1.209010
	10.750000	1.276701
	10.755000	1.270254
	10.760000	1.215457
	10.765000	1.231574
	10.770000	1.305711
	10.775000	1.299264
	10.780000	1.241244
	10.785000	1.260584
	10.790000	1.321828
	10.795000	1.315381
	10.800000	1.260584
	10.805000	1.279924
	10.810000	1.341168
	10.815000	1.334721
	10.820000	1.273478
	10.825000	1.289594
	10.830000	1.357285
	10.835000	1.357285
	10.840000	1.302488
	10.845000	1.312158
	10.850000	1.383072
	10.855000	1.376625
	10.860000	1.315381
	10.865000	1.328275
	10.870000	1.389518
	10.875000	1.379848
	10.880000	1.331498
	10.885000	1.344391
	10.890000	1.405635
	10.895000	1.405635
	10.900000	1.344391
	10.905000	1.350838
	10.910000	1.408859
	10.915000	1.405635
	10.920000	1.354062
	10.925000	1.363732
	10.930000	1.424975
	10.935000	1.412082
	10.940000	1.354062
	10.945000	1.366955
	10.950000	1.431422
	10.955000	1.418529
	10.960000	1.357285
	10.965000	1.366955
	10.970000	1.424975
	10.975000	1.408859
	10.980000	1.354062
	10.985000	1.366955
	10.990000	1.418529
	10.995000	1.412082
	11.000000	1.344391
	11.005000	1.354062
	11.010000	1.418529
	11.015000	1.402412
	11.020000	1.341168
	11.025000	1.350838
	11.030000	1.408859
	11.035000	1.399189
	11.040000	1.334721
	11.045000	1.344391
	11.050000	1.395965
	11.055000	1.379848
	11.060000	1.318605
	11.065000	1.331498
	11.070000	1.383072
	11.075000	1.363732
	11.080000	1.296041
	11.085000	1.302488
	11.090000	1.357285
	11.095000	1.331498
	11.100000	1.260584
	11.105000	1.257361
	11.110000	1.299264
	11.115000	1.263807
	11.120000	1.186447
	11.125000	1.170330
	11.130000	1.202564
	11.135000	1.157437
	11.140000	1.057512
	11.145000	1.041396
	11.150000	1.063959
	11.155000	1.009162
	11.160000	0.922131
	11.165000	0.902791
	11.170000	0.922131
	11.175000	0.860888
	11.180000	0.760963
	11.185000	0.728730
	11.190000	0.748070
	11.195000	0.683603
	11.200000	0.583679
	11.205000	0.557892
	11.210000	0.586902
	11.215000	0.528882
	11.220000	0.432181
	11.225000	0.428957
	11.230000	0.467638
	11.235000	0.425734
	11.240000	0.351597
	11.245000	0.358044
	11.250000	0.409617
	11.255000	0.387054
	11.260000	0.322587
	11.265000	0.335480
	11.270000	0.390277
	11.275000	0.374160
	11.280000	0.303247
	11.285000	0.325810
	11.290000	0.383830
	11.295000	0.361267
	11.300000	0.296800
	11.305000	0.319363
	11.310000	0.380607
	11.315000	0.358044
	11.320000	0.300023
	11.325000	0.316140
	11.330000	0.383830
	11.335000	0.364490
	11.340000	0.303247
	11.345000	0.319363
	11.350000	0.387054
	11.355000	0.364490
	11.360000	0.306470
	11.365000	0.329033
	11.370000	0.387054
	11.375000	0.367714
	11.380000	0.309693
	11.385000	0.338703
	11.390000	0.399947
	11.395000	0.380607
	11.400000	0.325810
	11.405000	0.335480
	11.410000	0.412841
	11.415000	0.380607
	11.420000	0.325810
	11.425000	0.341927
	11.430000	0.403171
	11.435000	0.393501
	11.440000	0.329033
	11.445000	0.351597
	11.450000	0.416064
	11.455000	0.399947
	11.460000	0.338703
	11.465000	0.361267
	11.470000	0.425734
	11.475000	0.403171
	11.480000	0.341927
	11.485000	0.370937
	11.490000	0.438628
	11.495000	0.419287
	11.500000	0.351597
	11.505000	0.383830
	11.510000	0.454744
	11.515000	0.438628
	11.520000	0.370937
	11.525000	0.393501
	11.530000	0.464414
	11.535000	0.448298
	11.540000	0.387054
	11.545000	0.412841
	11.550000	0.470861
	11.555000	0.464414
	11.560000	0.393501
	11.565000	0.422511
	11.570000	0.490201
	11.575000	0.470861
	11.580000	0.412841
	11.585000	0.435404
	11.590000	0.496648
	11.595000	0.483755
	11.600000	0.422511
	11.605000	0.441851
	11.610000	0.512765
	11.615000	0.496648
	11.620000	0.435404
	11.625000	0.457968
	11.630000	0.525658
	11.635000	0.503095
	11.640000	0.448298
	11.645000	0.477308
	11.650000	0.548222
	11.655000	0.519212
	11.660000	0.457968
	11.665000	0.486978
	11.670000	0.548222
	11.675000	0.535328
	11.680000	0.467638
	11.685000	0.493425
	11.690000	0.561115
	11.695000	0.538552
	11.700000	0.477308
	11.705000	0.506318
	11.710000	0.564339
	11.715000	0.551445
	11.720000	0.477308
	11.725000	0.509541
	11.730000	0.574009
	11.735000	0.554668
	11.740000	0.490201
	11.745000	0.512765
	11.750000	0.577232
	11.755000	0.557892
	11.760000	0.496648
	11.765000	0.512765
	11.770000	0.590125
	11.775000	0.557892
	11.780000	0.496648
	11.785000	0.525658
	11.790000	0.590125
	11.795000	0.577232
	11.800000	0.509541
	11.805000	0.532105
	11.810000	0.599796
	11.815000	0.574009
	11.820000	0.506318
	11.825000	0.548222
	11.830000	0.606242
	11.835000	0.580455
	11.840000	0.525658
	11.845000	0.548222
	11.850000	0.603019
	11.855000	0.580455
	11.860000	0.519212
	11.865000	0.535328
	11.870000	0.609466
	11.875000	0.586902
	11.880000	0.525658
	11.885000	0.544998
	11.890000	0.612689
	11.895000	0.590125
	11.900000	0.525658
	11.905000	0.554668
	11.910000	0.619136
	11.915000	0.599796
	11.920000	0.519212
	11.925000	0.557892
	11.930000	0.622359
	11.935000	0.590125
	11.940000	0.522435
	11.945000	0.554668
	11.950000	0.619136
	11.955000	0.590125
	11.960000	0.525658
	11.965000	0.561115
	11.970000	0.615912
	11.975000	0.596572
	11.980000	0.525658
	11.985000	0.557892
	11.990000	0.619136
	11.995000	0.593349
	12.000000	0.522435
	12.005000	0.554668
	12.010000	0.619136
	12.015000	0.596572
	12.020000	0.528882
	12.025000	0.561115
	12.030000	0.622359
	12.035000	0.590125
	12.040000	0.525658
	12.045000	0.554668
	12.050000	0.625582
	12.055000	0.590125
	12.060000	0.528882
	12.065000	0.557892
	12.070000	0.625582
	12.075000	0.596572
	12.080000	0.532105
	12.085000	0.564339
	12.090000	0.632029
	12.095000	0.599796
	12.100000	0.538552
	12.105000	0.567562
	12.110000	0.622359
	12.115000	0.606242
	12.120000	0.535328
	12.125000	0.564339
	12.130000	0.635252
	12.135000	0.599796
	12.140000	0.541775
	12.145000	0.570785
	12.150000	0.638476
	12.155000	0.603019
	12.160000	0.535328
	12.165000	0.570785
	12.170000	0.632029
	12.175000	0.599796
	12.180000	0.538552
	12.185000	0.570785
	12.190000	0.632029
	12.195000	0.593349
	12.200000	0.538552
	12.205000	0.577232
	12.210000	0.628806
	12.215000	0.609466
	12.220000	0.538552
	12.225000	0.574009
	12.230000	0.635252
	12.235000	0.609466
	12.240000	0.544998
	12.245000	0.570785
	12.250000	0.628806
	12.255000	0.606242
	12.260000	0.541775
	12.265000	0.570785
	12.270000	0.638476
	12.275000	0.609466
	12.280000	0.538552
	12.285000	0.570785
	12.290000	0.628806
	12.295000	0.599796
	12.300000	0.538552
	12.305000	0.567562
	12.310000	0.635252
	12.315000	0.593349
	12.320000	0.528882
	12.325000	0.574009
	12.330000	0.635252
	12.335000	0.599796
	12.340000	0.541775
	12.345000	0.567562
	12.350000	0.635252
	12.355000	0.606242
	12.360000	0.541775
	12.365000	0.577232
	12.370000	0.632029
	12.375000	0.606242
	12.380000	0.538552
	12.385000	0.574009
	12.390000	0.638476
	12.395000	0.599796
	12.400000	0.541775
	12.405000	0.574009
	12.410000	0.638476
	12.415000	0.606242
	12.420000	0.541775
	12.425000	0.577232
	12.430000	0.644923
	12.435000	0.609466
	12.440000	0.544998
	12.445000	0.577232
	12.450000	0.644923
	12.455000	0.606242
	12.460000	0.544998
	12.465000	0.583679
	12.470000	0.638476
	12.475000	0.603019
	12.480000	0.548222
	12.485000	0.577232
	12.490000	0.641699
	12.495000	0.603019
	12.500000	0.541775
	12.505000	0.580455
	12.510000	0.638476
	12.515000	0.612689
	12.520000	0.538552
	12.525000	0.580455
	12.530000	0.635252
	12.535000	0.599796
	12.540000	0.544998
	12.545000	0.570785
	12.550000	0.635252
	12.555000	0.603019
	12.560000	0.544998
	12.565000	0.574009
	12.570000	0.641699
	12.575000	0.599796
	12.580000	0.532105
	12.585000	0.577232
	12.590000	0.635252
	12.595000	0.596572
	12.600000	0.535328
	12.605000	0.577232
	12.610000	0.625582
	12.615000	0.593349
	12.620000	0.535328
	12.625000	0.574009
	12.630000	0.632029
	12.635000	0.586902
	12.640000	0.535328
	12.645000	0.567562
	12.650000	0.632029
	12.655000	0.586902
	12.660000	0.532105
	12.665000	0.570785
	12.670000	0.625582
	12.675000	0.586902
	12.680000	0.525658
	12.685000	0.561115
	12.690000	0.625582
	12.695000	0.583679
	12.700000	0.515988
	12.705000	0.561115
	12.710000	0.622359
	12.715000	0.583679
	12.720000	0.525658
	12.725000	0.567562
	12.730000	0.625582
	12.735000	0.586902
	12.740000	0.522435
	12.745000	0.557892
	12.750000	0.619136
	12.755000	0.577232
	12.760000	0.515988
	12.765000	0.567562
	12.770000	0.622359
	12.775000	0.586902
	12.780000	0.525658
	12.785000	0.561115
	12.790000	0.619136
	12.795000	0.586902
	12.800000	0.525658
	12.805000	0.557892
	12.810000	0.622359
	12.815000	0.580455
	12.820000	0.525658
	12.825000	0.567562
	12.830000	0.625582
	12.835000	0.586902
	12.840000	0.528882
	12.845000	0.574009
	12.850000	0.625582
	12.855000	0.583679
	12.860000	0.528882
	12.865000	0.574009
	12.870000	0.625582
	12.875000	0.590125
	12.880000	0.532105
	12.885000	0.574009
	12.890000	0.632029
	12.895000	0.586902
	12.900000	0.538552
	12.905000	0.577232
	12.910000	0.638476
	12.915000	0.593349
	12.920000	0.538552
	12.925000	0.586902
	12.930000	0.635252
	12.935000	0.593349
	12.940000	0.544998
	12.945000	0.580455
	12.950000	0.638476
	12.955000	0.606242
	12.960000	0.548222
	12.965000	0.586902
	12.970000	0.641699
	12.975000	0.596572
	12.980000	0.541775
	12.985000	0.590125
	12.990000	0.648146
	12.995000	0.612689
	13.000000	0.554668
	13.005000	0.603019
	13.010000	0.651369
	13.015000	0.609466
	13.020000	0.557892
	13.025000	0.599796
	13.030000	0.661039
	13.035000	0.619136
	13.040000	0.564339
	13.045000	0.606242
	13.050000	0.667486
	13.055000	0.625582
	13.060000	0.570785
	13.065000	0.609466
	13.070000	0.677156
	13.075000	0.622359
	13.080000	0.570785
	13.085000	0.615912
	13.090000	0.670709
	13.095000	0.632029
	13.100000	0.574009
	13.105000	0.622359
	13.110000	0.677156
	13.115000	0.638476
	13.120000	0.580455
	13.125000	0.628806
	13.130000	0.677156
	13.135000	0.641699
	13.140000	0.583679
	13.145000	0.625582
	13.150000	0.690050
	13.155000	0.644923
	13.160000	0.580455
	13.165000	0.632029
	13.170000	0.683603
	13.175000	0.648146
	13.180000	0.596572
	13.185000	0.644923
	13.190000	0.690050
	13.195000	0.641699
	13.200000	0.593349
	13.205000	0.638476
	13.210000	0.690050
	13.215000	0.641699
	13.220000	0.596572
	13.225000	0.638476
	13.230000	0.693273
	13.235000	0.644923
	13.240000	0.590125
	13.245000	0.635252
	13.250000	0.686826
	13.255000	0.644923
	13.260000	0.586902
	13.265000	0.641699
	13.270000	0.686826
	13.275000	0.651369
	13.280000	0.596572
	13.285000	0.638476
	13.290000	0.690050
	13.295000	0.648146
	13.300000	0.593349
	13.305000	0.641699
	13.310000	0.693273
	13.315000	0.648146
	13.320000	0.593349
	13.325000	0.641699
	13.330000	0.693273
	13.335000	0.648146
	13.340000	0.599796
	13.345000	0.638476
	13.350000	0.696496
	13.355000	0.648146
	13.360000	0.593349
	13.365000	0.641699
	13.370000	0.696496
	13.375000	0.654593
	13.380000	0.603019
	13.385000	0.648146
	13.390000	0.699720
	13.395000	0.654593
	13.400000	0.599796
	13.405000	0.641699
	13.410000	0.696496
	13.415000	0.654593
	13.420000	0.603019
	13.425000	0.648146
	13.430000	0.699720
	13.435000	0.654593
	13.440000	0.596572
	13.445000	0.654593
	13.450000	0.699720
	13.455000	0.654593
	13.460000	0.606242
	13.465000	0.657816
	13.470000	0.702943
	13.475000	0.657816
	13.480000	0.603019
	13.485000	0.654593
	13.490000	0.696496
	13.495000	0.651369
	13.500000	0.599796
	13.505000	0.651369
	13.510000	0.699720
	13.515000	0.651369
	13.520000	0.593349
	13.525000	0.644923
	13.530000	0.696496
	13.535000	0.648146
	13.540000	0.599796
	13.545000	0.638476
	13.550000	0.696496
	13.555000	0.644923
	13.560000	0.596572
	13.565000	0.638476
	13.570000	0.683603
	13.575000	0.644923
	13.580000	0.586902
	13.585000	0.641699
	13.590000	0.686826
	13.595000	0.638476
	13.600000	0.583679
	13.605000	0.625582
	13.610000	0.680379
	13.615000	0.635252
	13.620000	0.580455
	13.625000	0.632029
	13.630000	0.677156
	13.635000	0.625582
	13.640000	0.574009
	13.645000	0.619136
	13.650000	0.670709
	13.655000	0.628806
	13.660000	0.567562
	13.665000	0.615912
	13.670000	0.667486
	13.675000	0.622359
	13.680000	0.567562
	13.685000	0.612689
	13.690000	0.661039
	13.695000	0.615912
	13.700000	0.570785
	13.705000	0.609466
	13.710000	0.657816
	13.715000	0.615912
	13.720000	0.564339
	13.725000	0.603019
	13.730000	0.657816
	13.735000	0.609466
	13.740000	0.557892
	13.745000	0.606242
	13.750000	0.661039
	13.755000	0.606242
	13.760000	0.554668
	13.765000	0.603019
	13.770000	0.648146
	13.775000	0.609466
	13.780000	0.551445
	13.785000	0.596572
	13.790000	0.644923
	13.795000	0.599796
	13.800000	0.548222
	13.805000	0.606242
	13.810000	0.644923
	13.815000	0.590125
	13.820000	0.541775
	13.825000	0.593349
	13.830000	0.641699
	13.835000	0.580455
	13.840000	0.535328
	13.845000	0.586902
	13.850000	0.632029
	13.855000	0.577232
	13.860000	0.535328
	13.865000	0.583679
	13.870000	0.632029
	13.875000	0.577232
	13.880000	0.525658
	13.885000	0.580455
	13.890000	0.622359
	13.895000	0.577232
	13.900000	0.519212
	13.905000	0.574009
	13.910000	0.619136
	13.915000	0.567562
	13.920000	0.519212
	13.925000	0.567562
	13.930000	0.615912
	13.935000	0.564339
	13.940000	0.515988
	13.945000	0.567562
	13.950000	0.612689
	13.955000	0.557892
	13.960000	0.515988
	13.965000	0.567562
	13.970000	0.609466
	13.975000	0.564339
	13.980000	0.509541
	13.985000	0.561115
	13.990000	0.615912
	13.995000	0.557892
	14.000000	0.509541
	14.005000	0.567562
	14.010000	0.606242
	14.015000	0.561115
	14.020000	0.512765
	14.025000	0.554668
	14.030000	0.609466
	14.035000	0.561115
	14.040000	0.506318
	14.045000	0.561115
	14.050000	0.603019
	14.055000	0.554668
	14.060000	0.506318
	14.065000	0.557892
	14.070000	0.603019
	14.075000	0.554668
	14.080000	0.506318
	14.085000	0.564339
	14.090000	0.609466
	14.095000	0.551445
	14.100000	0.503095
	14.105000	0.554668
	14.110000	0.606242
	14.115000	0.554668
	14.120000	0.509541
	14.125000	0.567562
	14.130000	0.603019
	14.135000	0.561115
	14.140000	0.509541
	14.145000	0.561115
	14.150000	0.609466
	14.155000	0.561115
	14.160000	0.509541
	14.165000	0.564339
	14.170000	0.612689
	14.175000	0.554668
	14.180000	0.512765
	14.185000	0.570785
	14.190000	0.612689
	14.195000	0.561115
	14.200000	0.512765
	14.205000	0.574009
	14.210000	0.619136
	14.215000	0.567562
	14.220000	0.515988
	14.225000	0.567562
	14.230000	0.615912
	14.235000	0.567562
	14.240000	0.522435
	14.245000	0.574009
	14.250000	0.615912
	14.255000	0.574009
	14.260000	0.525658
	14.265000	0.577232
	14.270000	0.622359
	14.275000	0.561115
	14.280000	0.522435
	14.285000	0.577232
	14.290000	0.622359
	14.295000	0.567562
	14.300000	0.519212
	14.305000	0.583679
	14.310000	0.628806
	14.315000	0.574009
	14.320000	0.528882
	14.325000	0.586902
	14.330000	0.622359
	14.335000	0.567562
	14.340000	0.532105
	14.345000	0.574009
	14.350000	0.622359
	14.355000	0.567562
	14.360000	0.528882
	14.365000	0.580455
	14.370000	0.615912
	14.375000	0.557892
	14.380000	0.519212
	14.385000	0.580455
	14.390000	0.622359
	14.395000	0.567562
	14.400000	0.525658
	14.405000	0.590125
	14.410000	0.622359
	14.415000	0.574009
	14.420000	0.532105
	14.425000	0.583679
	14.430000	0.619136
	14.435000	0.580455
	14.440000	0.525658
	14.445000	0.586902
	14.450000	0.632029
	14.455000	0.574009
	14.460000	0.535328
	14.465000	0.590125
	14.470000	0.625582
	14.475000	0.574009
	14.480000	0.541775
	14.485000	0.593349
	14.490000	0.635252
	14.495000	0.574009
	14.500000	0.532105
	14.505000	0.596572
	14.510000	0.635252
	14.515000	0.580455
	14.520000	0.538552
	14.525000	0.593349
	14.530000	0.644923
	14.535000	0.586902
	14.540000	0.538552
	14.545000	0.596572
	14.550000	0.641699
	14.555000	0.586902
	14.560000	0.548222
	14.565000	0.606242
	14.570000	0.644923
	14.575000	0.580455
	14.580000	0.548222
	14.585000	0.606242
	14.590000	0.644923
	14.595000	0.586902
	14.600000	0.551445
	14.605000	0.606242
	14.610000	0.648146
	14.615000	0.590125
	14.620000	0.544998
	14.625000	0.593349
	14.630000	0.641699
	14.635000	0.580455
	14.640000	0.544998
	14.645000	0.599796
	14.650000	0.638476
	14.655000	0.577232
	14.660000	0.538552
	14.665000	0.599796
	14.670000	0.635252
	14.675000	0.580455
	14.680000	0.528882
	14.685000	0.586902
	14.690000	0.632029
	14.695000	0.574009
	14.700000	0.525658
	14.705000	0.586902
	14.710000	0.628806
	14.715000	0.570785
	14.720000	0.528882
	14.725000	0.586902
	14.730000	0.625582
	14.735000	0.577232
	14.740000	0.528882
	14.745000	0.593349
	14.750000	0.632029
	14.755000	0.570785
	14.760000	0.522435
	14.765000	0.596572
	14.770000	0.635252
	14.775000	0.577232
	14.780000	0.535328
	14.785000	0.590125
	14.790000	0.628806
	14.795000	0.574009
	14.800000	0.532105
	14.805000	0.596572
	14.810000	0.628806
	14.815000	0.570785
	14.820000	0.535328
	14.825000	0.593349
	14.830000	0.625582
	14.835000	0.570785
	14.840000	0.532105
	14.845000	0.590125
	14.850000	0.615912
	14.855000	0.570785
	14.860000	0.532105
	14.865000	0.590125
	14.870000	0.622359
	14.875000	0.564339
	14.880000	0.532105
	14.885000	0.593349
	14.890000	0.628806
	14.895000	0.561115
	14.900000	0.532105
	14.905000	0.603019
	14.910000	0.644923
	14.915000	0.593349
	14.920000	0.567562
	14.925000	0.644923
	14.930000	0.712613
	14.935000	0.670709
	14.940000	0.657816
	14.945000	0.764187
	14.950000	0.841547
	14.955000	0.825431
	14.960000	0.831877
	14.965000	0.925355
	14.970000	0.999492
	14.975000	0.973705
	14.980000	0.973705
	14.985000	1.044619
	14.990000	1.102640
	14.995000	1.063959
	15.000000	1.038172
	15.005000	1.105863
	15.010000	1.154213
	15.015000	1.115533
	15.020000	1.086523
	15.025000	1.160660
	15.030000	1.199340
	15.035000	1.157437
	15.040000	1.128426
	15.045000	1.205787
	15.050000	1.247691
	15.055000	1.196117
	15.060000	1.167107
	15.065000	1.234797
	15.070000	1.276701
	15.075000	1.231574
	15.080000	1.209010
	15.085000	1.267031
	15.090000	1.312158
	15.095000	1.257361
	15.100000	1.241244
	15.105000	1.292818
	15.110000	1.334721
	15.115000	1.289594
	15.120000	1.263807
	15.125000	1.321828
	15.130000	1.354062
	15.135000	1.308934
	15.140000	1.283148
	15.145000	1.341168
	15.150000	1.373402
	15.155000	1.328275
	15.160000	1.302488
	15.165000	1.366955
	15.170000	1.399189
	15.175000	1.347615
	15.180000	1.321828
	15.185000	1.386295
	15.190000	1.418529
	15.195000	1.363732
	15.200000	1.337945
	15.205000	1.395965
	15.210000	1.441092
	15.215000	1.373402
	15.220000	1.354062
	15.225000	1.418529
	15.230000	1.444316
	15.235000	1.399189
	15.240000	1.363732
	15.245000	1.434645
	15.250000	1.457209
	15.255000	1.405635
	15.260000	1.373402
	15.265000	1.428199
	15.270000	1.457209
	15.275000	1.399189
	15.280000	1.373402
	15.285000	1.428199
	15.290000	1.457209
	15.295000	1.389518
	15.300000	1.363732
	15.305000	1.424975
	15.310000	1.447539
	15.315000	1.392742
	15.320000	1.363732
	15.325000	1.418529
	15.330000	1.447539
	15.335000	1.386295
	15.340000	1.363732
	15.345000	1.415305
	15.350000	1.437869
	15.355000	1.383072
	15.360000	1.354062
	15.365000	1.402412
	15.370000	1.424975
	15.375000	1.373402
	15.380000	1.341168
	15.385000	1.395965
	15.390000	1.415305
	15.395000	1.354062
	15.400000	1.328275
	15.405000	1.366955
	15.410000	1.392742
	15.415000	1.344391
	15.420000	1.305711
	15.425000	1.354062
	15.430000	1.379848
	15.435000	1.318605
	15.440000	1.289594
	15.445000	1.331498
	15.450000	1.357285
	15.455000	1.299264
	15.460000	1.263807
	15.465000	1.312158
	15.470000	1.331498
	15.475000	1.279924
	15.480000	1.244467
	15.485000	1.283148
	15.490000	1.305711
	15.495000	1.241244
	15.500000	1.199340
	15.505000	1.244467
	15.510000	1.257361
	15.515000	1.183223
	15.520000	1.141320
	15.525000	1.170330
	15.530000	1.173553
	15.535000	1.089746
	15.540000	1.034949
	15.545000	1.073629
	15.550000	1.070406
	15.555000	0.986599
	15.560000	0.935025
	15.565000	0.960812
	15.570000	0.954365
	15.575000	0.877004
	15.580000	0.822207
	15.585000	0.857664
	15.590000	0.854441
	15.595000	0.767410
	15.600000	0.709390
	15.605000	0.731953
	15.610000	0.735177
	15.615000	0.641699
	15.620000	0.590125
	15.625000	0.606242
	15.630000	0.606242
	15.635000	0.525658
	15.640000	0.470861
	15.645000	0.506318
	15.650000	0.509541
	15.655000	0.438628
	15.660000	0.393501
	15.665000	0.445074
	15.670000	0.448298
	15.675000	0.374160
	15.680000	0.338703
	15.685000	0.399947
	15.690000	0.412841
	15.695000	0.348374
	15.700000	0.319363
	15.705000	0.364490
	15.710000	0.390277
	15.715000	0.319363
	15.720000	0.296800
	15.725000	0.354820
	15.730000	0.380607
	15.735000	0.309693
	15.740000	0.287130
	15.745000	0.351597
	15.750000	0.374160
	15.755000	0.316140
	15.760000	0.287130
	15.765000	0.348374
	15.770000	0.374160
	15.775000	0.306470
	15.780000	0.283906
	15.785000	0.345150
	15.790000	0.374160
	15.795000	0.306470
	15.800000	0.277460
	15.805000	0.345150
	15.810000	0.370937
	15.815000	0.306470
	15.820000	0.287130
	15.825000	0.351597
	15.830000	0.387054
	15.835000	0.316140
	15.840000	0.300023
	15.845000	0.364490
	15.850000	0.383830
	15.855000	0.322587
	15.860000	0.303247
	15.865000	0.374160
	15.870000	0.393501
	15.875000	0.332257
	15.880000	0.316140
	15.885000	0.377384
	15.890000	0.409617
	15.895000	0.354820
	15.900000	0.329033
	15.905000	0.396724
	15.910000	0.422511
	15.915000	0.358044
	15.920000	0.338703
	15.925000	0.406394
	15.930000	0.438628
	15.935000	0.374160
	15.940000	0.361267
	15.945000	0.425734
	15.950000	0.457968
	15.955000	0.390277
	15.960000	0.374160
	15.965000	0.441851
	15.970000	0.467638
	15.975000	0.409617
	15.980000	0.387054
	15.985000	0.461191
	15.990000	0.486978
	15.995000	0.422511
	16.000000	0.409617
	16.005000	0.477308
	16.010000	0.503095
	16.015000	0.432181
	16.020000	0.416064
	16.025000	0.483755
	16.030000	0.509541
	16.035000	0.438628
	16.040000	0.435404
	16.045000	0.490201
	16.050000	0.509541
	16.055000	0.448298
	16.060000	0.428957
	16.065000	0.493425
	16.070000	0.522435
	16.075000	0.461191
	16.080000	0.432181
	16.085000	0.503095
	16.090000	0.525658
	16.095000	0.464414
	16.100000	0.435404
	16.105000	0.506318
	16.110000	0.528882
	16.115000	0.467638
	16.120000	0.448298
	16.125000	0.519212
	16.130000	0.528882
	16.135000	0.464414
	16.140000	0.454744
	16.145000	0.525658
	16.150000	0.541775
	16.155000	0.477308
	16.160000	0.451521
	16.165000	0.512765
	16.170000	0.541775
	16.175000	0.467638
	16.180000	0.461191
	16.185000	0.522435
	16.190000	0.544998
	16.195000	0.474085
	16.200000	0.457968
	16.205000	0.519212
	16.210000	0.541775
	16.215000	0.483755
	16.220000	0.464414
	16.225000	0.528882
	16.230000	0.541775
	16.235000	0.483755
	16.240000	0.467638
	16.245000	0.535328
	16.250000	0.551445
	16.255000	0.490201
	16.260000	0.474085
	16.265000	0.535328
	16.270000	0.554668
	16.275000	0.499871
	16.280000	0.477308
	16.285000	0.538552
	16.290000	0.561115
	16.295000	0.493425
	16.300000	0.470861
	16.305000	0.548222
	16.310000	0.554668
	16.315000	0.493425
	16.320000	0.470861
	16.325000	0.538552
	16.330000	0.561115
	16.335000	0.493425
	16.340000	0.474085
	16.345000	0.544998
	16.350000	0.564339
	16.355000	0.496648
	16.360000	0.480531
	16.365000	0.548222
	16.370000	0.564339
	16.375000	0.493425
	16.380000	0.480531
	16.385000	0.551445
	16.390000	0.567562
	16.395000	0.496648
	16.400000	0.483755
	16.405000	0.541775
	16.410000	0.574009
	16.415000	0.493425
	16.420000	0.483755
	16.425000	0.548222
	16.430000	0.567562
	16.435000	0.496648
	16.440000	0.477308
	16.445000	0.541775
	16.450000	0.570785
	16.455000	0.499871
	16.460000	0.483755
	16.465000	0.548222
	16.470000	0.567562
	16.475000	0.493425
	16.480000	0.483755
	16.485000	0.544998
	16.490000	0.564339
	16.495000	0.499871
	16.500000	0.486978
	16.505000	0.551445
	16.510000	0.570785
	16.515000	0.506318
	16.520000	0.483755
	16.525000	0.548222
	16.530000	0.570785
	16.535000	0.509541
	16.540000	0.477308
	16.545000	0.557892
	16.550000	0.574009
	16.555000	0.503095
	16.560000	0.486978
	16.565000	0.557892
	16.570000	0.567562
	16.575000	0.493425
	16.580000	0.490201
	16.585000	0.554668
	16.590000	0.580455
	16.595000	0.509541
	16.600000	0.490201
	16.605000	0.554668
	16.610000	0.570785
	16.615000	0.499871
	16.620000	0.490201
	16.625000	0.567562
	16.630000	0.577232
	16.635000	0.503095
	16.640000	0.496648
	16.645000	0.557892
	16.650000	0.574009
	16.655000	0.509541
	16.660000	0.490201
	16.665000	0.570785
	16.670000	0.583679
	16.675000	0.512765
	16.680000	0.499871
	16.685000	0.557892
	16.690000	0.586902
	16.695000	0.512765
	16.700000	0.499871
	16.705000	0.564339
	16.710000	0.583679
	16.715000	0.515988
	16.720000	0.499871
	16.725000	0.567562
	16.730000	0.583679
	16.735000	0.522435
	16.740000	0.496648
	16.745000	0.574009
	16.750000	0.593349
	16.755000	0.522435
	16.760000	0.509541
	16.765000	0.577232
	16.770000	0.593349
	16.775000	0.519212
	16.780000	0.509541
	16.785000	0.586902
	16.790000	0.593349
	16.795000	0.515988
	16.800000	0.515988
	16.805000	0.583679
	16.810000	0.599796
	16.815000	0.528882
	16.820000	0.515988
	16.825000	0.590125
	16.830000	0.603019
	16.835000	0.532105
	16.840000	0.528882
	16.845000	0.590125
	16.850000	0.606242
	16.855000	0.535328
	16.860000	0.532105
	16.865000	0.599796
	16.870000	0.615912
	16.875000	0.541775
	16.880000	0.528882
	16.885000	0.603019
	16.890000	0.612689
	16.895000	0.544998
	16.900000	0.528882
	16.905000	0.603019
	16.910000	0.615912
	16.915000	0.538552
	16.920000	0.528882
	16.925000	0.606242
	16.930000	0.612689
	16.935000	0.544998
	16.940000	0.538552
	16.945000	0.606242
	16.950000	0.619136
	16.955000	0.544998
	16.960000	0.535328
	16.965000	0.606242
	16.970000	0.615912
	16.975000	0.548222
	16.980000	0.535328
	16.985000	0.609466
	16.990000	0.622359
	16.995000	0.548222
	17.000000	0.535328
	17.005000	0.606242
	17.010000	0.619136
	17.015000	0.544998
	17.020000	0.538552
	17.025000	0.609466
	17.030000	0.615912
	17.035000	0.541775
	17.040000	0.535328
	17.045000	0.606242
	17.050000	0.625582
	17.055000	0.544998
	17.060000	0.544998
	17.065000	0.609466
	17.070000	0.615912
	17.075000	0.538552
	17.080000	0.538552
	17.085000	0.609466
	17.090000	0.615912
	17.095000	0.538552
	17.100000	0.538552
	17.105000	0.612689
	17.110000	0.615912
	17.115000	0.544998
	17.120000	0.535328
	17.125000	0.603019
	17.130000	0.609466
	17.135000	0.535328
	17.140000	0.535328
	17.145000	0.612689
	17.150000	0.612689
	17.155000	0.538552
	17.160000	0.532105
	17.165000	0.609466
	17.170000	0.609466
	17.175000	0.548222
	17.180000	0.541775
	17.185000	0.612689
	17.190000	0.622359
	17.195000	0.541775
	17.200000	0.538552
	17.205000	0.606242
	17.210000	0.606242
	17.215000	0.541775
	17.220000	0.538552
	17.225000	0.606242
	17.230000	0.615912
	17.235000	0.544998
	17.240000	0.548222
	17.245000	0.619136
	17.250000	0.619136
	17.255000	0.541775
	17.260000	0.544998
	17.265000	0.609466
	17.270000	0.615912
	17.275000	0.544998
	17.280000	0.551445
	17.285000	0.609466
	17.290000	0.615912
	17.295000	0.554668
	17.300000	0.548222
	17.305000	0.606242
	17.310000	0.622359
	17.315000	0.541775
	17.320000	0.548222
	17.325000	0.619136
	17.330000	0.622359
	17.335000	0.554668
	17.340000	0.541775
	17.345000	0.606242
	17.350000	0.619136
	17.355000	0.548222
	17.360000	0.551445
	17.365000	0.622359
	17.370000	0.619136
	17.375000	0.554668
	17.380000	0.538552
	17.385000	0.609466
	17.390000	0.622359
	17.395000	0.551445
	17.400000	0.544998
	17.405000	0.612689
	17.410000	0.615912
	17.415000	0.551445
	17.420000	0.541775
	17.425000	0.615912
	17.430000	0.622359
	17.435000	0.548222
	17.440000	0.551445
	17.445000	0.622359
	17.450000	0.622359
	17.455000	0.554668
	17.460000	0.557892
	17.465000	0.622359
	17.470000	0.622359
	17.475000	0.557892
	17.480000	0.557892
	17.485000	0.615912
	17.490000	0.632029
	17.495000	0.551445
	17.500000	0.564339
	17.505000	0.628806
	17.510000	0.632029
	17.515000	0.551445
	17.520000	0.554668
	17.525000	0.625582
	17.530000	0.622359
	17.535000	0.561115
	17.540000	0.561115
	17.545000	0.625582
	17.550000	0.632029
	17.555000	0.554668
	17.560000	0.557892
	17.565000	0.638476
	17.570000	0.635252
	17.575000	0.551445
	17.580000	0.561115
	17.585000	0.622359
	17.590000	0.632029
	17.595000	0.561115
	17.600000	0.564339
	17.605000	0.625582
	17.610000	0.632029
	17.615000	0.554668
	17.620000	0.557892
	17.625000	0.625582
	17.630000	0.625582
	17.635000	0.551445
	17.640000	0.557892
	17.645000	0.625582
	17.650000	0.628806
	17.655000	0.557892
	17.660000	0.561115
	17.665000	0.625582
	17.670000	0.622359
	17.675000	0.551445
	17.680000	0.557892
	17.685000	0.622359
	17.690000	0.625582
	17.695000	0.551445
	17.700000	0.554668
	17.705000	0.619136
	17.710000	0.615912
	17.715000	0.551445
	17.720000	0.548222
	17.725000	0.615912
	17.730000	0.609466
	17.735000	0.544998
	17.740000	0.548222
	17.745000	0.619136
	17.750000	0.615912
	17.755000	0.541775
	17.760000	0.548222
	17.765000	0.609466
	17.770000	0.609466
	17.775000	0.541775
	17.780000	0.541775
	17.785000	0.612689
	17.790000	0.612689
	17.795000	0.538552
	17.800000	0.544998
	17.805000	0.612689
	17.810000	0.599796
	17.815000	0.538552
	17.820000	0.541775
	17.825000	0.615912
	17.830000	0.612689
	17.835000	0.535328
	17.840000	0.538552
	17.845000	0.603019
	17.850000	0.609466
	17.855000	0.528882
	17.860000	0.532105
	17.865000	0.606242
	17.870000	0.603019
	17.875000	0.535328
	17.880000	0.538552
	17.885000	0.603019
	17.890000	0.606242
	17.895000	0.532105
	17.900000	0.538552
	17.905000	0.603019
	17.910000	0.603019
	17.915000	0.528882
	17.920000	0.535328
	17.925000	0.606242
	17.930000	0.599796
	17.935000	0.532105
	17.940000	0.532105
	17.945000	0.599796
	17.950000	0.599796
	17.955000	0.528882
	17.960000	0.538552
	17.965000	0.603019
	17.970000	0.599796
	17.975000	0.522435
	17.980000	0.535328
	17.985000	0.603019
	17.990000	0.596572
	17.995000	0.522435
	18.000000	0.528882
	18.005000	0.599796
	18.010000	0.593349
	18.015000	0.525658
	18.020000	0.532105
	18.025000	0.599796
	18.030000	0.590125
	18.035000	0.525658
	18.040000	0.522435
	18.045000	0.599796
	18.050000	0.593349
	18.055000	0.519212
	18.060000	0.532105
	18.065000	0.596572
	18.070000	0.590125
	18.075000	0.515988
	18.080000	0.522435
	18.085000	0.603019
	18.090000	0.590125
	18.095000	0.515988
	18.100000	0.525658
	18.105000	0.599796
	18.110000	0.583679
	18.115000	0.515988
	18.120000	0.528882
	18.125000	0.590125
	18.130000	0.590125
	18.135000	0.515988
	18.140000	0.528882
	18.145000	0.593349
	18.150000	0.586902
	18.155000	0.522435
	18.160000	0.522435
	18.165000	0.580455
	18.170000	0.590125
	18.175000	0.512765
	18.180000	0.522435
	18.185000	0.580455
	18.190000	0.583679
	18.195000	0.506318
	18.200000	0.509541
	18.205000	0.577232
	18.210000	0.574009
	18.215000	0.506318
	18.220000	0.512765
	18.225000	0.580455
	18.230000	0.574009
	18.235000	0.503095
	18.240000	0.512765
	18.245000	0.586902
	18.250000	0.580455
	18.255000	0.503095
	18.260000	0.519212
	18.265000	0.590125
	18.270000	0.580455
	18.275000	0.509541
	18.280000	0.515988
	18.285000	0.586902
	18.290000	0.583679
	18.295000	0.509541
	18.300000	0.522435
	18.305000	0.586902
	18.310000	0.580455
	18.315000	0.512765
	18.320000	0.528882
	18.325000	0.599796
	18.330000	0.590125
	18.335000	0.515988
	18.340000	0.532105
	18.345000	0.603019
	18.350000	0.590125
	18.355000	0.519212
	18.360000	0.538552
	18.365000	0.596572
	18.370000	0.590125
	18.375000	0.522435
	18.380000	0.535328
	18.385000	0.603019
	18.390000	0.590125
	18.395000	0.528882
	18.400000	0.535328
	18.405000	0.606242
	18.410000	0.590125
	18.415000	0.522435
	18.420000	0.532105
	18.425000	0.603019
	18.430000	0.596572
	18.435000	0.522435
	18.440000	0.528882
	18.445000	0.599796
	18.450000	0.596572
	18.455000	0.515988
	18.460000	0.532105
	18.465000	0.599796
	18.470000	0.590125
	18.475000	0.519212
	18.480000	0.535328
	18.485000	0.593349
	18.490000	0.590125
	18.495000	0.528882
	18.500000	0.528882
	18.505000	0.599796
	18.510000	0.593349
	18.515000	0.512765
	18.520000	0.525658
	18.525000	0.599796
	18.530000	0.583679
	18.535000	0.515988
	18.540000	0.528882
	18.545000	0.599796
	18.550000	0.580455
	18.555000	0.512765
	18.560000	0.528882
	18.565000	0.599796
	18.570000	0.577232
	18.575000	0.512765
	18.580000	0.528882
	18.585000	0.593349
	18.590000	0.580455
	18.595000	0.509541
	18.600000	0.519212
	18.605000	0.590125
	18.610000	0.580455
	18.615000	0.499871
	18.620000	0.515988
	18.625000	0.586902
	18.630000	0.570785
	18.635000	0.499871
	18.640000	0.509541
	18.645000	0.580455
	18.650000	0.561115
	18.655000	0.499871
	18.660000	0.512765
	18.665000	0.577232
	18.670000	0.567562
	18.675000	0.496648
	18.680000	0.512765
	18.685000	0.583679
	18.690000	0.567562
	18.695000	0.499871
	18.700000	0.512765
	18.705000	0.577232
	18.710000	0.564339
	18.715000	0.503095
	18.720000	0.512765
	18.725000	0.583679
	18.730000	0.570785
	18.735000	0.496648
	18.740000	0.512765
	18.745000	0.596572
	18.750000	0.580455
	18.755000	0.496648
	18.760000	0.515988
	18.765000	0.590125
	18.770000	0.567562
	18.775000	0.499871
	18.780000	0.525658
	18.785000	0.590125
	18.790000	0.567562
	18.795000	0.503095
	18.800000	0.522435
	18.805000	0.590125
	18.810000	0.577232
	18.815000	0.496648
	18.820000	0.515988
	18.825000	0.583679
	18.830000	0.580455
	18.835000	0.503095
	18.840000	0.515988
	18.845000	0.583679
	18.850000	0.570785
	18.855000	0.509541
	18.860000	0.519212
	18.865000	0.580455
	18.870000	0.574009
	18.875000	0.499871
	18.880000	0.522435
	18.885000	0.593349
	18.890000	0.580455
	18.895000	0.503095
	18.900000	0.522435
	18.905000	0.596572
	18.910000	0.570785
	18.915000	0.503095
	18.920000	0.515988
	18.925000	0.590125
	18.930000	0.567562
	18.935000	0.506318
	18.940000	0.525658
	18.945000	0.590125
	18.950000	0.567562
	18.955000	0.503095
	18.960000	0.522435
	18.965000	0.590125
	18.970000	0.580455
	18.975000	0.506318
	18.980000	0.522435
	18.985000	0.590125
	18.990000	0.567562
	18.995000	0.499871
	19.000000	0.515988
	19.005000	0.586902
	19.010000	0.567562
	19.015000	0.499871
	19.020000	0.525658
	19.025000	0.593349
	19.030000	0.564339
	19.035000	0.503095
	19.040000	0.512765
	19.045000	0.583679
	19.050000	0.567562
	19.055000	0.503095
	19.060000	0.515988
	19.065000	0.577232
	19.070000	0.564339
	19.075000	0.503095
	19.080000	0.519212
	19.085000	0.580455
	19.090000	0.570785
	19.095000	0.499871
	19.100000	0.512765
	19.105000	0.583679
	19.110000	0.570785
	19.115000	0.493425
	19.120000	0.515988
	19.125000	0.583679
	19.130000	0.561115
	19.135000	0.503095
	19.140000	0.515988
	19.145000	0.583679
	19.150000	0.564339
	19.155000	0.503095
	19.160000	0.515988
	19.165000	0.580455
	19.170000	0.574009
	19.175000	0.496648
	19.180000	0.522435
	19.185000	0.596572
	19.190000	0.567562
	19.195000	0.496648
	19.200000	0.519212
	19.205000	0.593349
	19.210000	0.574009
	19.215000	0.496648
	19.220000	0.525658
	19.225000	0.583679
	19.230000	0.567562
	19.235000	0.499871
	19.240000	0.512765
	19.245000	0.583679
	19.250000	0.564339
	19.255000	0.493425
	19.260000	0.519212
	19.265000	0.583679
	19.270000	0.557892
	19.275000	0.493425
	19.280000	0.509541
	19.285000	0.577232
	19.290000	0.567562
	19.295000	0.496648
	19.300000	0.532105
	19.305000	0.603019
	19.310000	0.606242
	19.315000	0.548222
	19.320000	0.606242
	19.325000	0.712613
	19.330000	0.725507
	19.335000	0.702943
	19.340000	0.754517
	19.345000	0.857664
	19.350000	0.883451
	19.355000	0.844771
	19.360000	0.896345
	19.365000	0.983375
	19.370000	0.989822
	19.375000	0.941472
	19.380000	0.986599
	19.385000	1.067183
	19.390000	1.051066
	19.395000	1.002715
	19.400000	1.038172
	19.405000	1.102640
	19.410000	1.099416
	19.415000	1.047842
	19.420000	1.083299
	19.425000	1.154213
	19.430000	1.147767
	19.435000	1.089746
	19.440000	1.131650
	19.445000	1.202564
	19.450000	1.199340
	19.455000	1.144543
	19.460000	1.173553
	19.465000	1.247691
	19.470000	1.241244
	19.475000	1.189670
	19.480000	1.218680
	19.485000	1.286371
	19.490000	1.276701
	19.495000	1.231574
	19.500000	1.250914
	19.505000	1.321828
	19.510000	1.308934
	19.515000	1.257361
	19.520000	1.283148
	19.525000	1.347615
	19.530000	1.341168
	19.535000	1.286371
	19.540000	1.308934
	19.545000	1.376625
	19.550000	1.360508
	19.555000	1.302488
	19.560000	1.328275
	19.565000	1.395965
	19.570000	1.376625
	19.575000	1.321828
	19.580000	1.341168
	19.585000	1.405635
	19.590000	1.386295
	19.595000	1.334721
	19.600000	1.357285
	19.605000	1.415305
	19.610000	1.392742
	19.615000	1.337945
	19.620000	1.357285
	19.625000	1.421752
	19.630000	1.402412
	19.635000	1.337945
	19.640000	1.363732
	19.645000	1.418529
	19.650000	1.402412
	19.655000	1.337945
	19.660000	1.366955
	19.665000	1.418529
	19.670000	1.395965
	19.675000	1.344391
	19.680000	1.357285
	19.685000	1.405635
	19.690000	1.389518
	19.695000	1.318605
	19.700000	1.344391
	19.705000	1.395965
	19.710000	1.376625
	19.715000	1.315381
	19.720000	1.331498
	19.725000	1.386295
	19.730000	1.363732
	19.735000	1.299264
	19.740000	1.325051
	19.745000	1.379848
	19.750000	1.357285
	19.755000	1.296041
	19.760000	1.315381
	19.765000	1.366955
	19.770000	1.334721
	19.775000	1.276701
	19.780000	1.292818
	19.785000	1.344391
	19.790000	1.325051
	19.795000	1.257361
	19.800000	1.273478
	19.805000	1.312158
	19.810000	1.296041
	19.815000	1.225127
	19.820000	1.244467
	19.825000	1.296041
	19.830000	1.270254
	19.835000	1.202564
	19.840000	1.215457
	19.845000	1.263807
	19.850000	1.228351
	19.855000	1.157437
	19.860000	1.173553
	19.865000	1.205787
	19.870000	1.160660
	19.875000	1.092969
	19.880000	1.086523
	19.885000	1.121980
	19.890000	1.080076
	19.895000	0.989822
	19.900000	0.993045
	19.905000	1.012385
	19.910000	0.964035
	19.915000	0.877004
	19.920000	0.870558
	19.925000	0.899568
	19.930000	0.844771
	19.935000	0.760963
	19.940000	0.744847
	19.945000	0.764187
	19.950000	0.706166
	19.955000	0.599796
	19.960000	0.596572
	19.965000	0.612689
	19.970000	0.548222
	19.975000	0.457968
	19.980000	0.457968
	19.985000	0.486978
	19.990000	0.435404
	19.995000	0.348374
	20.000000	0.354820
	20.005000	0.399947
	20.010000	0.354820
	20.015000	0.290353
	20.020000	0.303247
	20.025000	0.348374
	20.030000	0.312917
	20.035000	0.242003
	20.040000	0.271013
	20.045000	0.322587
	20.050000	0.296800
	20.055000	0.232333
	20.060000	0.248449
	20.065000	0.309693
	20.070000	0.280683
	20.075000	0.216216
	20.080000	0.248449
	20.085000	0.312917
	20.090000	0.280683
	20.095000	0.225886
	20.100000	0.251673
	20.105000	0.316140
	20.110000	0.300023
	20.115000	0.245226
	20.120000	0.274236
	20.125000	0.341927
	20.130000	0.312917
	20.135000	0.261343
	20.140000	0.293576
	20.145000	0.358044
	20.150000	0.338703
	20.155000	0.277460
	20.160000	0.312917
	20.165000	0.380607
	20.170000	0.361267
	20.175000	0.300023
	20.180000	0.332257
	20.185000	0.399947
	20.190000	0.374160
	20.195000	0.316140
	20.200000	0.348374
	20.205000	0.412841
	20.210000	0.387054
	20.215000	0.332257
	20.220000	0.364490
	20.225000	0.432181
	20.230000	0.403171
	20.235000	0.341927
	20.240000	0.377384
	20.245000	0.441851
	20.250000	0.422511
	20.255000	0.361267
	20.260000	0.393501
	20.265000	0.451521
	20.270000	0.435404
	20.275000	0.374160
	20.280000	0.409617
	20.285000	0.467638
	20.290000	0.441851
	20.295000	0.387054
	20.300000	0.416064
	20.305000	0.483755
	20.310000	0.457968
	20.315000	0.393501
	20.320000	0.441851
	20.325000	0.496648
	20.330000	0.470861
	20.335000	0.412841
	20.340000	0.448298
	20.345000	0.506318
	20.350000	0.486978
	20.355000	0.425734
	20.360000	0.464414
	20.365000	0.525658
	20.370000	0.499871
	20.375000	0.441851
	20.380000	0.477308
	20.385000	0.535328
	20.390000	0.509541
	20.395000	0.448298
	20.400000	0.480531
	20.405000	0.541775
	20.410000	0.512765
	20.415000	0.457968
	20.420000	0.490201
	20.425000	0.548222
	20.430000	0.515988
	20.435000	0.457968
	20.440000	0.490201
	20.445000	0.554668
	20.450000	0.519212
	20.455000	0.464414
	20.460000	0.496648
	20.465000	0.554668
	20.470000	0.522435
	20.475000	0.470861
	20.480000	0.496648
	20.485000	0.561115
	20.490000	0.528882
	20.495000	0.470861
	20.500000	0.509541
	20.505000	0.561115
	20.510000	0.528882
	20.515000	0.474085
	20.520000	0.509541
	20.525000	0.567562
	20.530000	0.538552
	20.535000	0.467638
	20.540000	0.506318
	20.545000	0.567562
	20.550000	0.535328
	20.555000	0.464414
	20.560000	0.503095
	20.565000	0.567562
	20.570000	0.532105
	20.575000	0.464414
	20.580000	0.506318
	20.585000	0.557892
	20.590000	0.535328
	20.595000	0.470861
	20.600000	0.506318
	20.605000	0.570785
	20.610000	0.535328
	20.615000	0.470861
	20.620000	0.506318
	20.625000	0.561115
	20.630000	0.535328
	20.635000	0.477308
	20.640000	0.512765
	20.645000	0.567562
	20.650000	0.541775
	20.655000	0.477308
	20.660000	0.506318
	20.665000	0.570785
	20.670000	0.538552
	20.675000	0.474085
	20.680000	0.519212
	20.685000	0.567562
	20.690000	0.538552
	20.695000	0.470861
	20.700000	0.512765
	20.705000	0.570785
	20.710000	0.532105
	20.715000	0.477308
	20.720000	0.503095
	20.725000	0.561115
	20.730000	0.532105
	20.735000	0.480531
	20.740000	0.509541
	20.745000	0.567562
	20.750000	0.528882
	20.755000	0.470861
	20.760000	0.506318
	20.765000	0.564339
	20.770000	0.532105
	20.775000	0.474085
	20.780000	0.503095
	20.785000	0.567562
	20.790000	0.525658
	20.795000	0.470861
	20.800000	0.506318
	20.805000	0.557892
	20.810000	0.522435
	20.815000	0.461191
	20.820000	0.506318
	20.825000	0.564339
	20.830000	0.522435
	20.835000	0.467638
	20.840000	0.503095
	20.845000	0.557892
	20.850000	0.525658
	20.855000	0.464414
	20.860000	0.503095
	20.865000	0.551445
	20.870000	0.519212
	20.875000	0.461191
	20.880000	0.490201
	20.885000	0.551445
	20.890000	0.512765
	20.895000	0.454744
	20.900000	0.493425
	20.905000	0.551445
	20.910000	0.512765
	20.915000	0.464414
	20.920000	0.496648
	20.925000	0.551445
	20.930000	0.512765
	20.935000	0.451521
	20.940000	0.499871
	20.945000	0.548222
	20.950000	0.522435
	20.955000	0.461191
	20.960000	0.496648
	20.965000	0.554668
	20.970000	0.515988
	20.975000	0.451521
	20.980000	0.486978
	20.985000	0.551445
	20.990000	0.509541
	20.995000	0.454744
	21.000000	0.486978
	21.005000	0.548222
	21.010000	0.506318
	21.015000	0.454744
	21.020000	0.496648
	21.025000	0.551445
	21.030000	0.515988
	21.035000	0.457968
	21.040000	0.493425
	21.045000	0.548222
	21.050000	0.515988
	21.055000	0.454744
	21.060000	0.499871
	21.065000	0.541775
	21.070000	0.509541
	21.075000	0.451521
	21.080000	0.483755
	21.085000	0.551445
	21.090000	0.509541
	21.095000	0.457968
	21.100000	0.490201
	21.105000	0.551445
	21.110000	0.506318
	21.115000	0.457968
	21.120000	0.490201
	21.125000	0.544998
	21.130000	0.509541
	21.135000	0.451521
	21.140000	0.490201
	21.145000	0.548222
	21.150000	0.509541
	21.155000	0.457968
	21.160000	0.496648
	21.165000	0.548222
	21.170000	0.512765
	21.175000	0.451521
	21.180000	0.490201
	21.185000	0.544998
	21.190000	0.506318
	21.195000	0.451521
	21.200000	0.486978
	21.205000	0.544998
	21.210000	0.509541
	21.215000	0.451521
	21.220000	0.490201
	21.225000	0.541775
	21.230000	0.515988
	21.235000	0.457968
	21.240000	0.499871
	21.245000	0.551445
	21.250000	0.506318
	21.255000	0.457968
	21.260000	0.499871
	21.265000	0.561115
	21.270000	0.519212
	21.275000	0.464414
	21.280000	0.509541
	21.285000	0.557892
	21.290000	0.519212
	21.295000	0.467638
	21.300000	0.503095
	21.305000	0.561115
	21.310000	0.515988
	21.315000	0.467638
	21.320000	0.499871
	21.325000	0.557892
	21.330000	0.519212
	21.335000	0.470861
	21.340000	0.509541
	21.345000	0.564339
	21.350000	0.519212
	21.355000	0.464414
	21.360000	0.499871
	21.365000	0.561115
	21.370000	0.528882
	21.375000	0.464414
	21.380000	0.503095
	21.385000	0.564339
	21.390000	0.528882
	21.395000	0.477308
	21.400000	0.512765
	21.405000	0.567562
	21.410000	0.535328
	21.415000	0.480531
	21.420000	0.515988
	21.425000	0.574009
	21.430000	0.528882
	21.435000	0.477308
	21.440000	0.515988
	21.445000	0.570785
	21.450000	0.522435
	21.455000	0.477308
	21.460000	0.519212
	21.465000	0.564339
	21.470000	0.532105
	21.475000	0.480531
	21.480000	0.515988
	21.485000	0.567562
	21.490000	0.532105
	21.495000	0.474085
	21.500000	0.515988
	21.505000	0.567562
	21.510000	0.535328
	21.515000	0.470861
	21.520000	0.519212
	21.525000	0.574009
	21.530000	0.525658
	21.535000	0.477308
	21.540000	0.515988
	21.545000	0.574009
	21.550000	0.528882
	21.555000	0.467638
	21.560000	0.522435
	21.565000	0.567562
	21.570000	0.532105
	21.575000	0.467638
	21.580000	0.515988
	21.585000	0.574009
	21.590000	0.525658
	21.595000	0.474085
	21.600000	0.522435
	21.605000	0.574009
	21.610000	0.532105
	21.615000	0.470861
	21.620000	0.525658
	21.625000	0.567562
	21.630000	0.528882
	21.635000	0.477308
	21.640000	0.519212
	21.645000	0.570785
	21.650000	0.532105
	21.655000	0.474085
	21.660000	0.522435
	21.665000	0.574009
	21.670000	0.535328
	21.675000	0.486978
	21.680000	0.528882
	21.685000	0.583679
	21.690000	0.541775
	21.695000	0.483755
	21.700000	0.532105
	21.705000	0.580455
	21.710000	0.535328
	21.715000	0.486978
	21.720000	0.535328
	21.725000	0.586902
	21.730000	0.544998
	21.735000	0.490201
	21.740000	0.535328
	21.745000	0.590125
	21.750000	0.551445
	21.755000	0.493425
	21.760000	0.541775
	21.765000	0.593349
	21.770000	0.551445
	21.775000	0.496648
	21.780000	0.538552
	21.785000	0.599796
	21.790000	0.544998
	21.795000	0.499871
	21.800000	0.541775
	21.805000	0.596572
	21.810000	0.557892
	21.815000	0.496648
	21.820000	0.551445
	21.825000	0.596572
	21.830000	0.548222
	21.835000	0.503095
	21.840000	0.548222
	21.845000	0.599796
	21.850000	0.564339
	21.855000	0.503095
	21.860000	0.548222
	21.865000	0.599796
	21.870000	0.557892
	21.875000	0.503095
	21.880000	0.551445
	21.885000	0.606242
	21.890000	0.554668
	21.895000	0.506318
	21.900000	0.551445
	21.905000	0.599796
	21.910000	0.561115
	21.915000	0.506318
	21.920000	0.548222
	21.925000	0.603019
	21.930000	0.554668
	21.935000	0.503095
	21.940000	0.557892
	21.945000	0.606242
	21.950000	0.554668
	21.955000	0.499871
	21.960000	0.551445
	21.965000	0.606242
	21.970000	0.561115
	21.975000	0.503095
	21.980000	0.548222
	21.985000	0.599796
	21.990000	0.561115
	21.995000	0.506318
	22.000000	0.554668
	22.005000	0.603019
	22.010000	0.554668
	22.015000	0.499871
	22.020000	0.544998
	22.025000	0.603019
	22.030000	0.544998
	22.035000	0.503095
	22.040000	0.554668
	22.045000	0.593349
	22.050000	0.544998
	22.055000	0.503095
	22.060000	0.541775
	22.065000	0.593349
	22.070000	0.551445
	22.075000	0.493425
	22.080000	0.548222
	22.085000	0.586902
	22.090000	0.541775
	22.095000	0.496648
	22.100000	0.548222
	22.105000	0.586902
	22.110000	0.535328
	22.115000	0.490201
	22.120000	0.538552
	22.125000	0.590125
	22.130000	0.538552
	22.135000	0.483755
	22.140000	0.525658
	22.145000	0.583679
	22.150000	0.535328
	22.155000	0.480531
	22.160000	0.535328
	22.165000	0.583679
	22.170000	0.528882
	22.175000	0.490201
	22.180000	0.541775
	22.185000	0.577232
	22.190000	0.532105
	22.195000	0.477308
	22.200000	0.528882
	22.205000	0.570785
	22.210000	0.528882
	22.215000	0.483755
	22.220000	0.515988
	22.225000	0.570785
	22.230000	0.519212
	22.235000	0.474085
	22.240000	0.512765
	22.245000	0.567562
	22.250000	0.522435
	22.255000	0.470861
	22.260000	0.515988
	22.265000	0.564339
	22.270000	0.512765
	22.275000	0.464414
	22.280000	0.515988
	22.285000	0.564339
	22.290000	0.512765
	22.295000	0.470861
	22.300000	0.522435
	22.305000	0.561115
	22.310000	0.512765
	22.315000	0.464414
	22.320000	0.515988
	22.325000	0.561115
	22.330000	0.509541
	22.335000	0.467638
	22.340000	0.512765
	22.345000	0.557892
	22.350000	0.506318
	22.355000	0.464414
	22.360000	0.509541
	22.365000	0.561115
	22.370000	0.512765
	22.375000	0.461191
	22.380000	0.509541
	22.385000	0.554668
	22.390000	0.509541
	22.395000	0.457968
	22.400000	0.509541
	22.405000	0.557892
	22.410000	0.496648
	22.415000	0.457968
	22.420000	0.509541
	22.425000	0.548222
	22.430000	0.503095
	22.435000	0.457968
	22.440000	0.506318
	22.445000	0.544998
	22.450000	0.496648
	22.455000	0.457968
	22.460000	0.499871
	22.465000	0.541775
	22.470000	0.499871
	22.475000	0.441851
	22.480000	0.493425
	22.485000	0.541775
	22.490000	0.493425
	22.495000	0.445074
	22.500000	0.496648
	22.505000	0.541775
	22.510000	0.490201
	22.515000	0.441851
	22.520000	0.486978
	22.525000	0.541775
	22.530000	0.490201
	22.535000	0.445074
	22.540000	0.496648
	22.545000	0.541775
	22.550000	0.493425
	22.555000	0.451521
	22.560000	0.493425
	22.565000	0.541775
	22.570000	0.483755
	22.575000	0.438628
	22.580000	0.493425
	22.585000	0.528882
	22.590000	0.483755
	22.595000	0.445074
	22.600000	0.496648
	22.605000	0.538552
	22.610000	0.483755
	22.615000	0.432181
	22.620000	0.493425
	22.625000	0.535328
	22.630000	0.480531
	22.635000	0.432181
	22.640000	0.486978
	22.645000	0.528882
	22.650000	0.483755
	22.655000	0.432181
	22.660000	0.483755
	22.665000	0.532105
	22.670000	0.474085
	22.675000	0.432181
	22.680000	0.496648
	22.685000	0.528882
	22.690000	0.477308
	22.695000	0.435404
	22.700000	0.486978
	22.705000	0.532105
	22.710000	0.477308
	22.715000	0.432181
	22.720000	0.477308
	22.725000	0.519212
	22.730000	0.470861
	22.735000	0.428957
	22.740000	0.483755
	22.745000	0.522435
	22.750000	0.467638
	22.755000	0.422511
	22.760000	0.477308
	22.765000	0.522435
	22.770000	0.467638
	22.775000	0.416064
	22.780000	0.477308
	22.785000	0.522435
	22.790000	0.467638
	22.795000	0.419287
	22.800000	0.470861
	22.805000	0.519212
	22.810000	0.464414
	22.815000	0.419287
	22.820000	0.470861
	22.825000	0.509541
	22.830000	0.461191
	22.835000	0.412841
	22.840000	0.467638
	22.845000	0.515988
	22.850000	0.461191
	22.855000	0.416064
	22.860000	0.470861
	22.865000	0.509541
	22.870000	0.457968
	22.875000	0.412841
	22.880000	0.474085
	22.885000	0.509541
	22.890000	0.457968
	22.895000	0.416064
	22.900000	0.464414
	22.905000	0.506318
	22.910000	0.457968
	22.915000	0.416064
	22.920000	0.464414
	22.925000	0.509541
	22.930000	0.464414
	22.935000	0.416064
	22.940000	0.467638
	22.945000	0.512765
	22.950000	0.461191
	22.955000	0.419287
	22.960000	0.480531
	22.965000	0.515988
	22.970000	0.461191
	22.975000	0.419287
	22.980000	0.474085
	22.985000	0.522435
	22.990000	0.464414
	22.995000	0.432181
	23.000000	0.480531
	23.005000	0.525658
	23.010000	0.474085
	23.015000	0.428957
	23.020000	0.486978
	23.025000	0.525658
	23.030000	0.474085
	23.035000	0.432181
	23.040000	0.483755
	23.045000	0.528882
	23.050000	0.477308
	23.055000	0.435404
	23.060000	0.493425
	23.065000	0.532105
	23.070000	0.477308
	23.075000	0.441851
	23.080000	0.493425
	23.085000	0.535328
	23.090000	0.483755
	23.095000	0.441851
	23.100000	0.496648
	23.105000	0.538552
	23.110000	0.483755
	23.115000	0.441851
	23.120000	0.496648
	23.125000	0.532105
	23.130000	0.483755
	23.135000	0.445074
	23.140000	0.503095
	23.145000	0.541775
	23.150000	0.493425
	23.155000	0.448298
	23.160000	0.503095
	23.165000	0.544998
	23.170000	0.490201
	23.175000	0.441851
	23.180000	0.515988
	23.185000	0.548222
	23.190000	0.490201
	23.195000	0.457968
	23.200000	0.512765
	23.205000	0.548222
	23.210000	0.493425
	23.215000	0.457968
	23.220000	0.512765
	23.225000	0.541775
	23.230000	0.499871
	23.235000	0.451521
	23.240000	0.512765
	23.245000	0.548222
	23.250000	0.496648
	23.255000	0.461191
	23.260000	0.512765
	23.265000	0.557892
	23.270000	0.503095
	23.275000	0.454744
	23.280000	0.512765
	23.285000	0.554668
	23.290000	0.496648
	23.295000	0.454744
	23.300000	0.512765
	23.305000	0.548222
	23.310000	0.490201
	23.315000	0.448298
	23.320000	0.509541
	23.325000	0.548222
	23.330000	0.486978
	23.335000	0.445074
	23.340000	0.496648
	23.345000	0.535328
	23.350000	0.480531
	23.355000	0.438628
	23.360000	0.503095
	23.365000	0.535328
	23.370000	0.483755
	23.375000	0.438628
	23.380000	0.496648
	23.385000	0.535328
	23.390000	0.477308
	23.395000	0.445074
	23.400000	0.499871
	23.405000	0.528882
	23.410000	0.477308
	23.415000	0.432181
	23.420000	0.483755
	23.425000	0.532105
	23.430000	0.480531
	23.435000	0.432181
	23.440000	0.493425
	23.445000	0.525658
	23.450000	0.467638
	23.455000	0.438628
	23.460000	0.480531
	23.465000	0.528882
	23.470000	0.470861
	23.475000	0.428957
	23.480000	0.483755
	23.485000	0.535328
	23.490000	0.467638
	23.495000	0.432181
	23.500000	0.490201
	23.505000	0.519212
	23.510000	0.464414
	23.515000	0.435404
	23.520000	0.493425
	23.525000	0.519212
	23.530000	0.470861
	23.535000	0.435404
	23.540000	0.486978
	23.545000	0.519212
	23.550000	0.467638
	23.555000	0.425734
	23.560000	0.496648
	23.565000	0.525658
	23.570000	0.464414
	23.575000	0.422511
	23.580000	0.486978
	23.585000	0.522435
	23.590000	0.464414
	23.595000	0.422511
	23.600000	0.490201
	23.605000	0.522435
	23.610000	0.464414
	23.615000	0.432181
	23.620000	0.483755
	23.625000	0.519212
	23.630000	0.467638
	23.635000	0.425734
	23.640000	0.483755
	23.645000	0.522435
	23.650000	0.464414
	23.655000	0.425734
	23.660000	0.486978
	23.665000	0.528882
	23.670000	0.464414
	23.675000	0.428957
	23.680000	0.490201
	23.685000	0.525658
	23.690000	0.464414
	23.695000	0.428957
	23.700000	0.483755
	23.705000	0.522435
	23.710000	0.474085
	23.715000	0.432181
	23.720000	0.493425
	23.725000	0.525658
	23.730000	0.470861
	23.735000	0.425734
	23.740000	0.493425
	23.745000	0.528882
	23.750000	0.467638
	23.755000	0.435404
	23.760000	0.496648
	23.765000	0.522435
	23.770000	0.467638
	23.775000	0.435404
	23.780000	0.490201
	23.785000	0.525658
	23.790000	0.464414
	23.795000	0.432181
	23.800000	0.490201
	23.805000	0.525658
	23.810000	0.457968
	23.815000	0.432181
	23.820000	0.486978
	23.825000	0.522435
	23.830000	0.461191
	23.835000	0.428957
	23.840000	0.496648
	23.845000	0.525658
	23.850000	0.464414
	23.855000	0.432181
	23.860000	0.493425
	23.865000	0.519212
	23.870000	0.464414
	23.875000	0.432181
	23.880000	0.493425
	23.885000	0.528882
	23.890000	0.467638
	23.895000	0.438628
	23.900000	0.499871
	23.905000	0.532105
	23.910000	0.467638
	23.915000	0.438628
	23.920000	0.493425
	23.925000	0.535328
	23.930000	0.470861
	23.935000	0.441851
	23.940000	0.506318
	23.945000	0.538552
	23.950000	0.480531
	23.955000	0.435404
	23.960000	0.503095
	23.965000	0.528882
	23.970000	0.480531
	23.975000	0.445074
	23.980000	0.506318
	23.985000	0.532105
	23.990000	0.477308
	23.995000	0.448298
	24.000000	0.503095
	24.005000	0.538552
	24.010000	0.477308
	24.015000	0.441851
	24.020000	0.503095
	24.025000	0.532105
	24.030000	0.477308
	24.035000	0.448298
	24.040000	0.503095
	24.045000	0.538552
	24.050000	0.470861
	24.055000	0.441851
	24.060000	0.499871
	24.065000	0.528882
	24.070000	0.474085
	24.075000	0.454744
	24.080000	0.525658
	24.085000	0.583679
	24.090000	0.544998
	24.095000	0.538552
	24.100000	0.625582
	24.105000	0.690050
	24.110000	0.657816
	24.115000	0.664263
	24.120000	0.757740
	24.125000	0.818984
	24.130000	0.789974
	24.135000	0.789974
	24.140000	0.883451
	24.145000	0.931801
	24.150000	0.886674
	24.155000	0.880228
	24.160000	0.941472
	24.165000	0.986599
	24.170000	0.941472
	24.175000	0.912461
	24.180000	0.986599
	24.185000	1.025279
	24.190000	0.983375
	24.195000	0.960812
	24.200000	1.031726
	24.205000	1.063959
	24.210000	1.025279
	24.215000	0.996269
	24.220000	1.063959
	24.225000	1.105863
	24.230000	1.060736
	24.235000	1.031726
	24.240000	1.109086
	24.245000	1.141320
	24.250000	1.092969
	24.255000	1.073629
	24.260000	1.138096
	24.265000	1.183223
	24.270000	1.128426
	24.275000	1.099416
	24.280000	1.173553
	24.285000	1.199340
	24.290000	1.154213
	24.295000	1.131650
	24.300000	1.186447
	24.305000	1.231574
	24.310000	1.180000
	24.315000	1.154213
	24.320000	1.215457
	24.325000	1.250914
	24.330000	1.199340
	24.335000	1.170330
	24.340000	1.234797
	24.345000	1.267031
	24.350000	1.205787
	24.355000	1.183223
	24.360000	1.244467
	24.365000	1.270254
	24.370000	1.221904
	24.375000	1.199340
	24.380000	1.257361
	24.385000	1.283148
	24.390000	1.231574
	24.395000	1.205787
	24.400000	1.254137
	24.405000	1.289594
	24.410000	1.234797
	24.415000	1.209010
	24.420000	1.260584
	24.425000	1.286371
	24.430000	1.241244
	24.435000	1.212234
	24.440000	1.270254
	24.445000	1.289594
	24.450000	1.234797
	24.455000	1.205787
	24.460000	1.257361
	24.465000	1.286371
	24.470000	1.231574
	24.475000	1.192894
	24.480000	1.250914
	24.485000	1.273478
	24.490000	1.218680
	24.495000	1.199340
	24.500000	1.254137
	24.505000	1.267031
	24.510000	1.218680
	24.515000	1.189670
	24.520000	1.244467
	24.525000	1.267031
	24.530000	1.212234
	24.535000	1.189670
	24.540000	1.241244
	24.545000	1.257361
	24.550000	1.199340
	24.555000	1.180000
	24.560000	1.225127
	24.565000	1.241244
	24.570000	1.183223
	24.575000	1.157437
	24.580000	1.205787
	24.585000	1.231574
	24.590000	1.173553
	24.595000	1.141320
	24.600000	1.189670
	24.605000	1.205787
	24.610000	1.147767
	24.615000	1.109086
	24.620000	1.150990
	24.625000	1.167107
	24.630000	1.099416
	24.635000	1.063959
	24.640000	1.112310
	24.645000	1.121980
	24.650000	1.054289
	24.655000	0.999492
	24.660000	1.034949
	24.665000	1.028502
	24.670000	0.947918
	24.675000	0.902791
	24.680000	0.931801
	24.685000	0.922131
	24.690000	0.838324
	24.695000	0.796420
	24.700000	0.818984
	24.705000	0.818984
	24.710000	0.731953
	24.715000	0.677156
	24.720000	0.696496
	24.725000	0.683603
	24.730000	0.599796
	24.735000	0.532105
	24.740000	0.557892
	24.745000	0.554668
	24.750000	0.457968
	24.755000	0.409617
	24.760000	0.441851
	24.765000	0.445074
	24.770000	0.364490
	24.775000	0.329033
	24.780000	0.377384
	24.785000	0.383830
	24.790000	0.309693
	24.795000	0.287130
	24.800000	0.332257
	24.805000	0.345150
	24.810000	0.277460
	24.815000	0.245226
	24.820000	0.303247
	24.825000	0.325810
	24.830000	0.258119
	24.835000	0.238779
	24.840000	0.287130
	24.845000	0.309693
	24.850000	0.248449
	24.855000	0.222663
	24.860000	0.280683
	24.865000	0.303247
	24.870000	0.245226
	24.875000	0.219439
	24.880000	0.274236
	24.885000	0.300023
	24.890000	0.245226
	24.895000	0.206546
	24.900000	0.271013
	24.905000	0.290353
	24.910000	0.229109
	24.915000	0.200099
	24.920000	0.258119
	24.925000	0.287130
	24.930000	0.232333
	24.935000	0.196876
	24.940000	0.254896
	24.945000	0.277460
	24.950000	0.219439
	24.955000	0.190429
	24.960000	0.264566
	24.965000	0.283906
	24.970000	0.225886
	24.975000	0.203322
	24.980000	0.267790
	24.985000	0.296800
	24.990000	0.232333
	24.995000	0.216216
	25.000000	0.287130
	25.005000	0.309693
	25.010000	0.258119
	25.015000	0.232333
	25.020000	0.293576
	25.025000	0.329033
	25.030000	0.271013
	25.035000	0.251673
	25.040000	0.319363
	25.045000	0.341927
	25.050000	0.283906
	25.055000	0.267790
	25.060000	0.332257
	25.065000	0.367714
	25.070000	0.303247
	25.075000	0.277460
	25.080000	0.354820
	25.085000	0.380607
	25.090000	0.322587
	25.095000	0.303247
	25.100000	0.361267
	25.105000	0.396724
	25.110000	0.322587
	25.115000	0.300023
	25.120000	0.380607
	25.125000	0.396724
	25.130000	0.329033
	25.135000	0.306470
	25.140000	0.377384
	25.145000	0.399947
	25.150000	0.338703
	25.155000	0.319363
	25.160000	0.387054
	25.165000	0.406394
	25.170000	0.341927
	25.175000	0.322587
	25.180000	0.387054
	25.185000	0.412841
	25.190000	0.341927
	25.195000	0.322587
	25.200000	0.396724
	25.205000	0.419287
	25.210000	0.351597
	25.215000	0.325810
	25.220000	0.390277
	25.225000	0.416064
	25.230000	0.351597
	25.235000	0.335480
	25.240000	0.396724
	25.245000	0.422511
	25.250000	0.358044
	25.255000	0.329033
	25.260000	0.403171
	25.265000	0.428957
	25.270000	0.354820
	25.275000	0.335480
	25.280000	0.399947
	25.285000	0.419287
	25.290000	0.364490
	25.295000	0.341927
	25.300000	0.406394
	25.305000	0.425734
	25.310000	0.361267
	25.315000	0.341927
	25.320000	0.403171
	25.325000	0.432181
	25.330000	0.358044
	25.335000	0.345150
	25.340000	0.406394
	25.345000	0.435404
	25.350000	0.364490
	25.355000	0.361267
	25.360000	0.416064
	25.365000	0.435404
	25.370000	0.370937
	25.375000	0.351597
	25.380000	0.419287
	25.385000	0.435404
	25.390000	0.370937
	25.395000	0.351597
	25.400000	0.419287
	25.405000	0.438628
	25.410000	0.377384
	25.415000	0.354820
	25.420000	0.419287
	25.425000	0.441851
	25.430000	0.374160
	25.435000	0.354820
	25.440000	0.425734
	25.445000	0.445074
	25.450000	0.377384
	25.455000	0.364490
	25.460000	0.419287
	25.465000	0.445074
	25.470000	0.377384
	25.475000	0.361267
	25.480000	0.432181
	25.485000	0.448298
	25.490000	0.374160
	25.495000	0.354820
	25.500000	0.425734
	25.505000	0.445074
	25.510000	0.383830
	25.515000	0.358044
	25.520000	0.432181
	25.525000	0.445074
	25.530000	0.380607
	25.535000	0.361267
	25.540000	0.425734
	25.545000	0.441851
	25.550000	0.380607
	25.555000	0.358044
	25.560000	0.428957
	25.565000	0.448298
	25.570000	0.377384
	25.575000	0.364490
	25.580000	0.432181
	25.585000	0.438628
	25.590000	0.377384
	25.595000	0.354820
	25.600000	0.419287
	25.605000	0.435404
	25.610000	0.370937
	25.615000	0.354820
	25.620000	0.425734
	25.625000	0.435404
	25.630000	0.374160
	25.635000	0.358044
	25.640000	0.419287
	25.645000	0.432181
	25.650000	0.370937
	25.655000	0.341927
	25.660000	0.419287
	25.665000	0.438628
	25.670000	0.364490
	25.675000	0.348374
	25.680000	0.416064
	25.685000	0.425734
	25.690000	0.361267
	25.695000	0.345150
	25.700000	0.412841
	25.705000	0.422511
	25.710000	0.351597
	25.715000	0.341927
	25.720000	0.412841
	25.725000	0.428957
	25.730000	0.358044
	25.735000	0.345150
	25.740000	0.412841
	25.745000	0.428957
	25.750000	0.354820
	25.755000	0.341927
	25.760000	0.409617
	25.765000	0.425734
	25.770000	0.361267
	25.775000	0.345150
	25.780000	0.406394
	25.785000	0.432181
	25.790000	0.358044
	25.795000	0.345150
	25.800000	0.409617
	25.805000	0.432181
	25.810000	0.370937
	25.815000	0.354820
	25.820000	0.425734
	25.825000	0.438628
	25.830000	0.377384
	25.835000	0.367714
	25.840000	0.435404
	25.845000	0.448298
	25.850000	0.377384
	25.855000	0.370937
	25.860000	0.438628
	25.865000	0.454744
	25.870000	0.396724
	25.875000	0.374160
	25.880000	0.441851
	25.885000	0.464414
	25.890000	0.399947
	25.895000	0.383830
	25.900000	0.451521
	25.905000	0.474085
	25.910000	0.399947
	25.915000	0.383830
	25.920000	0.454744
	25.925000	0.470861
	25.930000	0.399947
	25.935000	0.393501
	25.940000	0.451521
	25.945000	0.467638
	25.950000	0.406394
	25.955000	0.387054
	25.960000	0.454744
	25.965000	0.467638
	25.970000	0.399947
	25.975000	0.380607
	25.980000	0.448298
	25.985000	0.467638
	25.990000	0.406394
	25.995000	0.383830
	26.000000	0.451521
	26.005000	0.467638
	26.010000	0.399947
	26.015000	0.383830
	26.020000	0.451521
	26.025000	0.467638
	26.030000	0.393501
	26.035000	0.380607
	26.040000	0.448298
	26.045000	0.457968
	26.050000	0.390277
	26.055000	0.383830
	26.060000	0.445074
	26.065000	0.457968
	26.070000	0.393501
	26.075000	0.377384
	26.080000	0.438628
	26.085000	0.464414
	26.090000	0.390277
	26.095000	0.374160
	26.100000	0.441851
	26.105000	0.451521
	26.110000	0.383830
	26.115000	0.374160
	26.120000	0.445074
	26.125000	0.457968
	26.130000	0.387054
	26.135000	0.380607
	26.140000	0.441851
	26.145000	0.461191
	26.150000	0.393501
	26.155000	0.374160
	26.160000	0.445074
	26.165000	0.457968
	26.170000	0.396724
	26.175000	0.380607
	26.180000	0.445074
	26.185000	0.467638
	26.190000	0.393501
	26.195000	0.380607
	26.200000	0.445074
	26.205000	0.464414
	26.210000	0.390277
	26.215000	0.383830
	26.220000	0.454744
	26.225000	0.464414
	26.230000	0.406394
	26.235000	0.393501
	26.240000	0.461191
	26.245000	0.467638
	26.250000	0.399947
	26.255000	0.390277
	26.260000	0.464414
	26.265000	0.474085
	26.270000	0.406394
	26.275000	0.393501
	26.280000	0.461191
	26.285000	0.474085
	26.290000	0.399947
	26.295000	0.396724
	26.300000	0.467638
	26.305000	0.477308
	26.310000	0.412841
	26.315000	0.393501
	26.320000	0.464414
	26.325000	0.480531
	26.330000	0.409617
	26.335000	0.406394
	26.340000	0.467638
	26.345000	0.480531
	26.350000	0.409617
	26.355000	0.393501
	26.360000	0.464414
	26.365000	0.483755
	26.370000	0.412841
	26.375000	0.396724
	26.380000	0.470861
	26.385000	0.477308
	26.390000	0.409617
	26.395000	0.396724
	26.400000	0.461191
	26.405000	0.470861
	26.410000	0.409617
	26.415000	0.396724
	26.420000	0.461191
	26.425000	0.480531
	26.430000	0.409617
	26.435000	0.393501
	26.440000	0.467638
	26.445000	0.480531
	26.450000	0.406394
	26.455000	0.403171
	26.460000	0.470861
	26.465000	0.477308
	26.470000	0.406394
	26.475000	0.399947
	26.480000	0.477308
	26.485000	0.483755
	26.490000	0.406394
	26.495000	0.406394
	26.500000	0.470861
	26.505000	0.480531
	26.510000	0.412841
	26.515000	0.399947
	26.520000	0.477308
	26.525000	0.480531
	26.530000	0.416064
	26.535000	0.406394
	26.540000	0.480531
	26.545000	0.483755
	26.550000	0.419287
	26.555000	0.406394
	26.560000	0.477308
	26.565000	0.486978
	26.570000	0.419287
	26.575000	0.422511
	26.580000	0.474085
	26.585000	0.483755
	26.590000	0.425734
	26.595000	0.412841
	26.600000	0.480531
	26.605000	0.493425
	26.610000	0.416064
	26.615000	0.416064
	26.620000	0.480531
	26.625000	0.486978
	26.630000	0.419287
	26.635000	0.412841
	26.640000	0.474085
	26.645000	0.486978
	26.650000	0.422511
	26.655000	0.412841
	26.660000	0.477308
	26.665000	0.480531
	26.670000	0.419287
	26.675000	0.412841
	26.680000	0.477308
	26.685000	0.483755
	26.690000	0.412841
	26.695000	0.406394
	26.700000	0.477308
	26.705000	0.483755
	26.710000	0.409617
	26.715000	0.406394
	26.720000	0.464414
	26.725000	0.480531
	26.730000	0.406394
	26.735000	0.390277
	26.740000	0.464414
	26.745000	0.467638
	26.750000	0.403171
	26.755000	0.399947
	26.760000	0.454744
	26.765000	0.464414
	26.770000	0.396724
	26.775000	0.387054
	26.780000	0.464414
	26.785000	0.467638
	26.790000	0.393501
	26.795000	0.390277
	26.800000	0.454744
	26.805000	0.464414
	26.810000	0.390277
	26.815000	0.390277
	26.820000	0.461191
	26.825000	0.467638
	26.830000	0.390277
	26.835000	0.390277
	26.840000	0.457968
	26.845000	0.474085
	26.850000	0.393501
	26.855000	0.399947
	26.860000	0.467638
	26.865000	0.467638
	26.870000	0.403171
	26.875000	0.393501
	26.880000	0.467638
	26.885000	0.470861
	26.890000	0.393501
	26.895000	0.399947
	26.900000	0.474085
	26.905000	0.474085
	26.910000	0.406394
	26.915000	0.409617
	26.920000	0.474085
	26.925000	0.480531
	26.930000	0.419287
	26.935000	0.409617
	26.940000	0.480531
	26.945000	0.486978
	26.950000	0.422511
	26.955000	0.419287
	26.960000	0.483755
	26.965000	0.486978
	26.970000	0.419287
	26.975000	0.419287
	26.980000	0.483755
	26.985000	0.493425
	26.990000	0.412841
	26.995000	0.419287
	27.000000	0.483755
	27.005000	0.499871
	27.010000	0.419287
	27.015000	0.422511
	27.020000	0.480531
	27.025000	0.490201
	27.030000	0.416064
	27.035000	0.412841
	27.040000	0.477308
	27.045000	0.470861
	27.050000	0.406394
	27.055000	0.399947
	27.060000	0.467638
	27.065000	0.470861
	27.070000	0.399947
	27.075000	0.399947
	27.080000	0.470861
	27.085000	0.467638
	27.090000	0.399947
	27.095000	0.399947
	27.100000	0.464414
	27.105000	0.470861
	27.110000	0.399947
	27.115000	0.396724
	27.120000	0.470861
	27.125000	0.467638
	27.130000	0.399947
	27.135000	0.399947
	27.140000	0.470861
	27.145000	0.474085
	27.150000	0.399947
	27.155000	0.399947
	27.160000	0.467638
	27.165000	0.470861
	27.170000	0.406394
	27.175000	0.396724
	27.180000	0.474085
	27.185000	0.467638
	27.190000	0.399947
	27.195000	0.399947
	27.200000	0.464414
	27.205000	0.470861
	27.210000	0.403171
	27.215000	0.390277
	27.220000	0.464414
	27.225000	0.467638
	27.230000	0.393501
	27.235000	0.403171
	27.240000	0.464414
	27.245000	0.477308
	27.250000	0.399947
	27.255000	0.406394
	27.260000	0.474085
	27.265000	0.477308
	27.270000	0.406394
	27.275000	0.406394
	27.280000	0.474085
	27.285000	0.477308
	27.290000	0.409617
	27.295000	0.409617
	27.300000	0.474085
	27.305000	0.477308
	27.310000	0.406394
	27.315000	0.412841
	27.320000	0.477308
	27.325000	0.480531
	27.330000	0.403171
	27.335000	0.416064
	27.340000	0.470861
	27.345000	0.480531
	27.350000	0.416064
	27.355000	0.406394
	27.360000	0.480531
	27.365000	0.480531
	27.370000	0.399947
	27.375000	0.403171
	27.380000	0.474085
	27.385000	0.474085
	27.390000	0.396724
	27.395000	0.409617
	27.400000	0.474085
	27.405000	0.470861
	27.410000	0.406394
	27.415000	0.396724
	27.420000	0.464414
	27.425000	0.467638
	27.430000	0.393501
	27.435000	0.399947
	27.440000	0.470861
	27.445000	0.470861
	27.450000	0.387054
	27.455000	0.399947
	27.460000	0.464414
	27.465000	0.467638
	27.470000	0.390277
	27.475000	0.396724
	27.480000	0.464414
	27.485000	0.461191
	27.490000	0.403171
	27.495000	0.403171
	27.500000	0.470861
	27.505000	0.464414
	27.510000	0.399947
	27.515000	0.403171
	27.520000	0.467638
	27.525000	0.464414
	27.530000	0.399947
	27.535000	0.399947
	27.540000	0.474085
	27.545000	0.467638
	27.550000	0.403171
	27.555000	0.409617
	27.560000	0.470861
	27.565000	0.477308
	27.570000	0.396724
	27.575000	0.403171
	27.580000	0.474085
	27.585000	0.467638
	27.590000	0.399947
	27.595000	0.409617
	27.600000	0.477308
	27.605000	0.477308
	27.610000	0.406394
	27.615000	0.412841
	27.620000	0.480531
	27.625000	0.477308
	27.630000	0.406394
	27.635000	0.403171
	27.640000	0.477308
	27.645000	0.477308
	27.650000	0.406394
	27.655000	0.403171
	27.660000	0.477308
	27.665000	0.474085
	27.670000	0.403171
	27.675000	0.409617
	27.680000	0.480531
	27.685000	0.477308
	27.690000	0.406394
	27.695000	0.412841
	27.700000	0.480531
	27.705000	0.474085
	27.710000	0.406394
	27.715000	0.409617
	27.720000	0.483755
	27.725000	0.474085
	27.730000	0.406394
	27.735000	0.412841
	27.740000	0.474085
	27.745000	0.474085
	27.750000	0.406394
	27.755000	0.412841
	27.760000	0.486978
	27.765000	0.480531
	27.770000	0.403171
	27.775000	0.412841
	27.780000	0.493425
	27.785000	0.486978
	27.790000	0.406394
	27.795000	0.422511
	27.800000	0.486978
	27.805000	0.480531
	27.810000	0.419287
	27.815000	0.416064
	27.820000	0.486978
	27.825000	0.486978
	27.830000	0.409617
	27.835000	0.428957
	27.840000	0.496648
	27.845000	0.493425
	27.850000	0.416064
	27.855000	0.425734
	27.860000	0.490201
	27.865000	0.486978
	27.870000	0.419287
	27.875000	0.432181
	27.880000	0.490201
	27.885000	0.483755
	27.890000	0.416064
	27.895000	0.422511
	27.900000	0.499871
	27.905000	0.496648
	27.910000	0.425734
	27.915000	0.425734
	27.920000	0.496648
	27.925000	0.493425
	27.930000	0.422511
	27.935000	0.428957
	27.940000	0.496648
	27.945000	0.493425
	27.950000	0.419287
	27.955000	0.419287
	27.960000	0.490201
	27.965000	0.490201
	27.970000	0.419287
	27.975000	0.422511
	27.980000	0.490201
	27.985000	0.474085
	27.990000	0.409617
	27.995000	0.412841
	28.000000	0.486978
	28.005000	0.483755
	28.010000	0.419287
	28.015000	0.432181
	28.020000	0.509541
	28.025000	0.528882
	28.030000	0.480531
	28.035000	0.512765
	28.040000	0.622359
	28.045000	0.644923
	28.050000	0.619136
	28.055000	0.661039
	28.060000	0.767410
	28.065000	0.793197
	28.070000	0.748070
	28.075000	0.777080
	28.080000	0.867334
	28.085000	0.880228
	28.090000	0.818984
	28.095000	0.857664
	28.100000	0.928578
	28.105000	0.935025
	28.110000	0.870558
	28.115000	0.889898
	28.120000	0.967258
	28.125000	0.967258
	28.130000	0.909238
	28.135000	0.922131
	28.140000	0.996269
	28.145000	1.002715
	28.150000	0.951142
	28.155000	0.960812
	28.160000	1.038172
	28.165000	1.034949
	28.170000	0.983375
	28.175000	0.989822
	28.180000	1.060736
	28.185000	1.063959
	28.190000	1.005939
	28.195000	1.018832
	28.200000	1.089746
	28.205000	1.096193
	28.210000	1.034949
	28.215000	1.051066
	28.220000	1.109086
	28.225000	1.125203
	28.230000	1.060736
	28.235000	1.080076
	28.240000	1.138096
	28.245000	1.144543
	28.250000	1.076853
	28.255000	1.092969
	28.260000	1.154213
	28.265000	1.154213
	28.270000	1.096193
	28.275000	1.112310
	28.280000	1.176777
	28.285000	1.167107
	28.290000	1.115533
	28.295000	1.128426
	28.300000	1.183223
	28.305000	1.173553
	28.310000	1.112310
	28.315000	1.115533
	28.320000	1.180000
	28.325000	1.183223
	28.330000	1.112310
	28.335000	1.121980
	28.340000	1.180000
	28.345000	1.167107
	28.350000	1.109086
	28.355000	1.121980
	28.360000	1.176777
	28.365000	1.163883
	28.370000	1.105863
	28.375000	1.118756
	28.380000	1.183223
	28.385000	1.173553
	28.390000	1.109086
	28.395000	1.115533
	28.400000	1.186447
	28.405000	1.167107
	28.410000	1.099416
	28.415000	1.115533
	28.420000	1.173553
	28.425000	1.163883
	28.430000	1.099416
	28.435000	1.112310
	28.440000	1.167107
	28.445000	1.157437
	28.450000	1.092969
	28.455000	1.099416
	28.460000	1.147767
	28.465000	1.138096
	28.470000	1.083299
	28.475000	1.089746
	28.480000	1.144543
	28.485000	1.131650
	28.490000	1.073629
	28.495000	1.070406
	28.500000	1.134873
	28.505000	1.115533
	28.510000	1.054289
	28.515000	1.051066
	28.520000	1.115533
	28.525000	1.099416
	28.530000	1.038172
	28.535000	1.038172
	28.540000	1.089746
	28.545000	1.086523
	28.550000	1.012385
	28.555000	1.018832
	28.560000	1.073629
	28.565000	1.063959
	28.570000	0.993045
	28.575000	0.993045
	28.580000	1.034949
	28.585000	1.015609
	28.590000	0.951142
	28.595000	0.947918
	28.600000	0.993045
	28.605000	0.967258
	28.610000	0.896345
	28.615000	0.889898
	28.620000	0.928578
	28.625000	0.906015
	28.630000	0.825431
	28.635000	0.815761
	28.640000	0.851218
	28.645000	0.818984
	28.650000	0.748070
	28.655000	0.722283
	28.660000	0.757740
	28.665000	0.735177
	28.670000	0.644923
	28.675000	0.622359
	28.680000	0.654593
	28.685000	0.609466
	28.690000	0.509541
	28.695000	0.470861
	28.700000	0.490201
	28.705000	0.445074
	28.710000	0.341927
	28.715000	0.329033
	28.720000	0.361267
	28.725000	0.329033
	28.730000	0.235556
	28.735000	0.242003
	28.740000	0.283906
	28.745000	0.274236
	28.750000	0.196876
	28.755000	0.203322
	28.760000	0.261343
	28.765000	0.242003
	28.770000	0.183982
	28.775000	0.190429
	28.780000	0.254896
	28.785000	0.238779
	28.790000	0.167865
	28.795000	0.190429
	28.800000	0.248449
	28.805000	0.245226
	28.810000	0.177536
	28.815000	0.187206
	28.820000	0.254896
	28.825000	0.232333
	28.830000	0.164642
	28.835000	0.187206
	28.840000	0.251673
	28.845000	0.235556
	28.850000	0.167865
	28.855000	0.187206
	28.860000	0.248449
	28.865000	0.232333
	28.870000	0.174312
	28.875000	0.193652
	28.880000	0.258119
	28.885000	0.242003
	28.890000	0.187206
	28.895000	0.193652
	28.900000	0.254896
	28.905000	0.258119
	28.910000	0.183982
	28.915000	0.200099
	28.920000	0.267790
	28.925000	0.258119
	28.930000	0.200099
	28.935000	0.206546
	28.940000	0.280683
	28.945000	0.277460
	28.950000	0.209769
	28.955000	0.232333
	28.960000	0.293576
	28.965000	0.283906
	28.970000	0.219439
	28.975000	0.238779
	28.980000	0.306470
	28.985000	0.300023
	28.990000	0.225886
	28.995000	0.251673
	29.000000	0.319363
	29.005000	0.303247
	29.010000	0.245226
	29.015000	0.267790
	29.020000	0.332257
	29.025000	0.325810
	29.030000	0.258119
	29.035000	0.277460
	29.040000	0.341927
	29.045000	0.329033
	29.050000	0.264566
	29.055000	0.287130
	29.060000	0.351597
	29.065000	0.338703
	29.070000	0.274236
	29.075000	0.296800
	29.080000	0.361267
	29.085000	0.351597
	29.090000	0.290353
	29.095000	0.306470
	29.100000	0.370937
	29.105000	0.361267
	29.110000	0.296800
	29.115000	0.316140
	29.120000	0.377384
	29.125000	0.361267
	29.130000	0.306470
	29.135000	0.316140
	29.140000	0.383830
	29.145000	0.370937
	29.150000	0.300023
	29.155000	0.322587
	29.160000	0.387054
	29.165000	0.374160
	29.170000	0.306470
	29.175000	0.325810
	29.180000	0.387054
	29.185000	0.377384
	29.190000	0.309693
	29.195000	0.329033
	29.200000	0.390277
	29.205000	0.374160
	29.210000	0.309693
	29.215000	0.322587
	29.220000	0.393501
	29.225000	0.387054
	29.230000	0.316140
	29.235000	0.329033
	29.240000	0.399947
	29.245000	0.374160
	29.250000	0.312917
	29.255000	0.332257
	29.260000	0.396724
	29.265000	0.390277
	29.270000	0.312917
	29.275000	0.338703
	29.280000	0.406394
	29.285000	0.387054
	29.290000	0.319363
	29.295000	0.341927
	29.300000	0.403171
	29.305000	0.393501
	29.310000	0.319363
	29.315000	0.335480
	29.320000	0.406394
	29.325000	0.383830
	29.330000	0.325810
	29.335000	0.341927
	29.340000	0.409617
	29.345000	0.393501
	29.350000	0.329033
	29.355000	0.345150
	29.360000	0.409617
	29.365000	0.390277
	29.370000	0.329033
	29.375000	0.351597
	29.380000	0.412841
	29.385000	0.393501
	29.390000	0.335480
	29.395000	0.348374
	29.400000	0.412841
	29.405000	0.393501
	29.410000	0.329033
	29.415000	0.351597
	29.420000	0.419287
	29.425000	0.399947
	29.430000	0.338703
	29.435000	0.348374
	29.440000	0.416064
	29.445000	0.396724
	29.450000	0.332257
	29.455000	0.348374
	29.460000	0.419287
	29.465000	0.396724
	29.470000	0.332257
	29.475000	0.361267
	29.480000	0.428957
	29.485000	0.399947
	29.490000	0.332257
	29.495000	0.351597
	29.500000	0.422511
	29.505000	0.399947
	29.510000	0.335480
	29.515000	0.358044
	29.520000	0.419287
	29.525000	0.399947
	29.530000	0.341927
	29.535000	0.364490
	29.540000	0.419287
	29.545000	0.403171
	29.550000	0.338703
	29.555000	0.358044
	29.560000	0.422511
	29.565000	0.406394
	29.570000	0.335480
	29.575000	0.358044
	29.580000	0.422511
	29.585000	0.406394
	29.590000	0.341927
	29.595000	0.354820
	29.600000	0.425734
	29.605000	0.406394
	29.610000	0.338703
	29.615000	0.361267
	29.620000	0.425734
	29.625000	0.403171
	29.630000	0.338703
	29.635000	0.364490
	29.640000	0.422511
	29.645000	0.403171
	29.650000	0.341927
	29.655000	0.361267
	29.660000	0.428957
	29.665000	0.409617
	29.670000	0.341927
	29.675000	0.361267
	29.680000	0.435404
	29.685000	0.409617
	29.690000	0.341927
	29.695000	0.361267
	29.700000	0.428957
	29.705000	0.412841
	29.710000	0.341927
	29.715000	0.361267
	29.720000	0.432181
	29.725000	0.409617
	29.730000	0.338703
	29.735000	0.370937
	29.740000	0.428957
	29.745000	0.409617
	29.750000	0.351597
	29.755000	0.367714
	29.760000	0.425734
	29.765000	0.412841
	29.770000	0.348374
	29.775000	0.367714
	29.780000	0.438628
	29.785000	0.409617
	29.790000	0.341927
	29.795000	0.377384
	29.800000	0.432181
	29.805000	0.412841
	29.810000	0.345150
	29.815000	0.374160
	29.820000	0.438628
	29.825000	0.416064
	29.830000	0.345150
	29.835000	0.374160
	29.840000	0.432181
	29.845000	0.416064
	29.850000	0.348374
	29.855000	0.370937
	29.860000	0.435404
	29.865000	0.409617
	29.870000	0.348374
	29.875000	0.367714
	29.880000	0.438628
	29.885000	0.416064
	29.890000	0.348374
	29.895000	0.370937
	29.900000	0.441851
	29.905000	0.412841
	29.910000	0.348374
	29.915000	0.370937
	29.920000	0.441851
	29.925000	0.409617
	29.930000	0.341927
	29.935000	0.370937
	29.940000	0.438628
	29.945000	0.409617
	29.950000	0.345150
	29.955000	0.377384
	29.960000	0.435404
	29.965000	0.409617
	29.970000	0.338703
	29.975000	0.370937
	29.980000	0.432181
	29.985000	0.409617
	29.990000	0.348374
	29.995000	0.367714
	30.000000	0.428957
	30.005000	0.416064
	30.010000	0.341927
	30.015000	0.361267
	30.020000	0.425734
	30.025000	0.406394
	30.030000	0.338703
	30.035000	0.367714
	30.040000	0.432181
	30.045000	0.406394
	30.050000	0.341927
	30.055000	0.367714
	30.060000	0.425734
	30.065000	0.409617
	30.070000	0.345150
	30.075000	0.367714
	30.080000	0.425734
	30.085000	0.409617
	30.090000	0.345150
	30.095000	0.370937
	30.100000	0.428957
	30.105000	0.406394
	30.110000	0.345150
	30.115000	0.364490
	30.120000	0.428957
	30.125000	0.406394
	30.130000	0.348374
	30.135000	0.367714
	30.140000	0.435404
	30.145000	0.412841
	30.150000	0.348374
	30.155000	0.367714
	30.160000	0.432181
	30.165000	0.409617
	30.170000	0.345150
	30.175000	0.374160
	30.180000	0.435404
	30.185000	0.412841
	30.190000	0.354820
	30.195000	0.377384
	30.200000	0.441851
	30.205000	0.419287
	30.210000	0.348374
	30.215000	0.380607
	30.220000	0.438628
	30.225000	0.416064
	30.230000	0.351597
	30.235000	0.380607
	30.240000	0.445074
	30.245000	0.432181
	30.250000	0.358044
	30.255000	0.380607
	30.260000	0.454744
	30.265000	0.422511
	30.270000	0.361267
	30.275000	0.390277
	30.280000	0.457968
	30.285000	0.435404
	30.290000	0.361267
	30.295000	0.393501
	30.300000	0.454744
	30.305000	0.432181
	30.310000	0.361267
	30.315000	0.390277
	30.320000	0.461191
	30.325000	0.435404
	30.330000	0.364490
	30.335000	0.399947
	30.340000	0.464414
	30.345000	0.438628
	30.350000	0.374160
	30.355000	0.396724
	30.360000	0.467638
	30.365000	0.438628
	30.370000	0.374160
	30.375000	0.406394
	30.380000	0.467638
	30.385000	0.441851
	30.390000	0.377384
	30.395000	0.406394
	30.400000	0.470861
	30.405000	0.438628
	30.410000	0.380607
	30.415000	0.396724
	30.420000	0.464414
	30.425000	0.435404
	30.430000	0.380607
	30.435000	0.406394
	30.440000	0.470861
	30.445000	0.441851
	30.450000	0.374160
	30.455000	0.406394
	30.460000	0.470861
	30.465000	0.435404
	30.470000	0.370937
	30.475000	0.399947
	30.480000	0.461191
	30.485000	0.435404
	30.490000	0.367714
	30.495000	0.403171
	30.500000	0.464414
	30.505000	0.435404
	30.510000	0.374160
	30.515000	0.406394
	30.520000	0.464414
	30.525000	0.435404
	30.530000	0.364490
	30.535000	0.399947
	30.540000	0.457968
	30.545000	0.432181
	30.550000	0.364490
	30.555000	0.403171
	30.560000	0.461191
	30.565000	0.432181
	30.570000	0.370937
	30.575000	0.403171
	30.580000	0.464414
	30.585000	0.435404
	30.590000	0.364490
	30.595000	0.403171
	30.600000	0.461191
	30.605000	0.438628
	30.610000	0.374160
	30.615000	0.399947
	30.620000	0.464414
	30.625000	0.438628
	30.630000	0.367714
	30.635000	0.403171
	30.640000	0.467638
	30.645000	0.438628
	30.650000	0.374160
	30.655000	0.399947
	30.660000	0.464414
	30.665000	0.435404
	30.670000	0.377384
	30.675000	0.409617
	30.680000	0.461191
	30.685000	0.438628
	30.690000	0.374160
	30.695000	0.406394
	30.700000	0.464414
	30.705000	0.435404
	30.710000	0.370937
	30.715000	0.409617
	30.720000	0.464414
	30.725000	0.435404
	30.730000	0.374160
	30.735000	0.406394
	30.740000	0.467638
	30.745000	0.445074
	30.750000	0.370937
	30.755000	0.403171
	30.760000	0.467638
	30.765000	0.438628
	30.770000	0.380607
	30.775000	0.406394
	30.780000	0.470861
	30.785000	0.438628
	30.790000	0.374160
	30.795000	0.403171
	30.800000	0.467638
	30.805000	0.435404
	30.810000	0.380607
	30.815000	0.409617
	30.820000	0.470861
	30.825000	0.435404
	30.830000	0.377384
	30.835000	0.403171
	30.840000	0.467638
	30.845000	0.441851
	30.850000	0.370937
	30.855000	0.403171
	30.860000	0.464414
	30.865000	0.435404
	30.870000	0.374160
	30.875000	0.403171
	30.880000	0.467638
	30.885000	0.441851
	30.890000	0.374160
	30.895000	0.406394
	30.900000	0.467638
	30.905000	0.441851
	30.910000	0.370937
	30.915000	0.403171
	30.920000	0.467638
	30.925000	0.438628
	30.930000	0.370937
	30.935000	0.409617
	30.940000	0.461191
	30.945000	0.435404
	30.950000	0.374160
	30.955000	0.409617
	30.960000	0.470861
	30.965000	0.435404
	30.970000	0.370937
	30.975000	0.412841
	30.980000	0.470861
	30.985000	0.441851
	30.990000	0.377384
	30.995000	0.409617
	31.000000	0.467638
	31.005000	0.441851
	31.010000	0.377384
	31.015000	0.419287
	31.020000	0.480531
	31.025000	0.454744
	31.030000	0.387054
	31.035000	0.416064
	31.040000	0.483755
	31.045000	0.451521
	31.050000	0.387054
	31.055000	0.422511
	31.060000	0.477308
	31.065000	0.445074
	31.070000	0.390277
	31.075000	0.422511
	31.080000	0.483755
	31.085000	0.451521
	31.090000	0.393501
	31.095000	0.428957
	31.100000	0.483755
	31.105000	0.461191
	31.110000	0.396724
	31.115000	0.422511
	31.120000	0.490201
	31.125000	0.457968
	31.130000	0.396724
	31.135000	0.432181
	31.140000	0.496648
	31.145000	0.461191
	31.150000	0.396724
	31.155000	0.428957
	31.160000	0.490201
	31.165000	0.464414
	31.170000	0.396724
	31.175000	0.438628
	31.180000	0.490201
	31.185000	0.457968
	31.190000	0.403171
	31.195000	0.435404
	31.200000	0.493425
	31.205000	0.457968
	31.210000	0.399947
	31.215000	0.435404
	31.220000	0.490201
	31.225000	0.464414
	31.230000	0.403171
	31.235000	0.432181
	31.240000	0.493425
	31.245000	0.467638
	31.250000	0.403171
	31.255000	0.441851
	31.260000	0.503095
	31.265000	0.467638
	31.270000	0.409617
	31.275000	0.438628
	31.280000	0.503095
	31.285000	0.467638
	31.290000	0.409617
	31.295000	0.441851
	31.300000	0.499871
	31.305000	0.464414
	31.310000	0.406394
	31.315000	0.441851
	31.320000	0.499871
	31.325000	0.464414
	31.330000	0.406394
	31.335000	0.441851
	31.340000	0.499871
	31.345000	0.467638
	31.350000	0.403171
	31.355000	0.438628
	31.360000	0.496648
	31.365000	0.467638
	31.370000	0.399947
	31.375000	0.438628
	31.380000	0.499871
	31.385000	0.464414
	31.390000	0.406394
	31.395000	0.445074
	31.400000	0.499871
	31.405000	0.464414
	31.410000	0.403171
	31.415000	0.448298
	31.420000	0.499871
	31.425000	0.464414
	31.430000	0.406394
	31.435000	0.441851
	31.440000	0.499871
	31.445000	0.474085
	31.450000	0.416064
	31.455000	0.451521
	31.460000	0.509541
	31.465000	0.480531
	31.470000	0.409617
	31.475000	0.451521
	31.480000	0.509541
	31.485000	0.467638
	31.490000	0.409617
	31.495000	0.454744
	31.500000	0.509541
	31.505000	0.470861
	31.510000	0.412841
	31.515000	0.451521
	31.520000	0.509541
	31.525000	0.477308
	31.530000	0.419287
	31.535000	0.454744
	31.540000	0.515988
	31.545000	0.474085
	31.550000	0.412841
	31.555000	0.451521
	31.560000	0.512765
	31.565000	0.474085
	31.570000	0.419287
	31.575000	0.451521
	31.580000	0.509541
	31.585000	0.477308
	31.590000	0.409617
	31.595000	0.457968
	31.600000	0.509541
	31.605000	0.474085
	31.610000	0.406394
	31.615000	0.451521
	31.620000	0.509541
	31.625000	0.474085
	31.630000	0.412841
	31.635000	0.448298
	31.640000	0.506318
	31.645000	0.470861
	31.650000	0.412841
	31.655000	0.451521
	31.660000	0.506318
	31.665000	0.464414
	31.670000	0.412841
	31.675000	0.451521
	31.680000	0.503095
	31.685000	0.464414
	31.690000	0.403171
	31.695000	0.448298
	31.700000	0.509541
	31.705000	0.474085
	31.710000	0.412841
	31.715000	0.448298
	31.720000	0.506318
	31.725000	0.477308
	31.730000	0.412841
	31.735000	0.454744
	31.740000	0.506318
	31.745000	0.474085
	31.750000	0.416064
	31.755000	0.451521
	31.760000	0.506318
	31.765000	0.470861
	31.770000	0.412841
	31.775000	0.445074
	31.780000	0.512765
	31.785000	0.470861
	31.790000	0.406394
	31.795000	0.448298
	31.800000	0.506318
	31.805000	0.467638
	31.810000	0.406394
	31.815000	0.448298
	31.820000	0.499871
	31.825000	0.464414
	31.830000	0.412841
	31.835000	0.451521
	31.840000	0.503095
	31.845000	0.464414
	31.850000	0.409617
	31.855000	0.448298
	31.860000	0.496648
	31.865000	0.464414
	31.870000	0.412841
	31.875000	0.448298
	31.880000	0.503095
	31.885000	0.464414
	31.890000	0.403171
	31.895000	0.451521
	31.900000	0.503095
	31.905000	0.464414
	31.910000	0.406394
	31.915000	0.441851
	31.920000	0.503095
	31.925000	0.467638
	31.930000	0.406394
	31.935000	0.448298
	31.940000	0.499871
	31.945000	0.467638
	31.950000	0.403171
	31.955000	0.445074
	31.960000	0.499871
	31.965000	0.454744
	31.970000	0.409617
	31.975000	0.451521
	31.980000	0.503095
	31.985000	0.461191
	31.990000	0.403171
	31.995000	0.448298
	32.000000	0.496648
	32.005000	0.464414
	32.010000	0.406394
	32.015000	0.448298
	32.020000	0.506318
	32.025000	0.464414
	32.030000	0.399947
	32.035000	0.448298
	32.040000	0.506318
	32.045000	0.464414
	32.050000	0.409617
	32.055000	0.448298
	32.060000	0.506318
	32.065000	0.467638
	32.070000	0.406394
	32.075000	0.448298
	32.080000	0.509541
	32.085000	0.464414
	32.090000	0.409617
	32.095000	0.448298
	32.100000	0.506318
	32.105000	0.464414
	32.110000	0.403171
	32.115000	0.454744
	32.120000	0.503095
	32.125000	0.461191
	32.130000	0.403171
	32.135000	0.441851
	32.140000	0.506318
	32.145000	0.461191
	32.150000	0.403171
	32.155000	0.454744
	32.160000	0.506318
	32.165000	0.461191
	32.170000	0.412841
	32.175000	0.448298
	32.180000	0.509541
	32.185000	0.454744
	32.190000	0.406394
	32.195000	0.448298
	32.200000	0.503095
	32.205000	0.461191
	32.210000	0.406394
	32.215000	0.448298
	32.220000	0.496648
	32.225000	0.454744
	32.230000	0.399947
	32.235000	0.448298
	32.240000	0.493425
	32.245000	0.457968
	32.250000	0.393501
	32.255000	0.448298
	32.260000	0.493425
	32.265000	0.461191
	32.270000	0.422511
	32.275000	0.490201
	32.280000	0.554668
	32.285000	0.557892
	32.290000	0.541775
	32.295000	0.619136
	32.300000	0.709390
	32.305000	0.706166
	32.310000	0.690050
	32.315000	0.760963
	32.320000	0.851218
	32.325000	0.828654
	32.330000	0.799644
	32.335000	0.864111
	32.340000	0.935025
	32.345000	0.906015
	32.350000	0.864111
	32.355000	0.922131
	32.360000	0.983375
	32.365000	0.944695
	32.370000	0.906015
	32.375000	0.957588
	32.380000	1.018832
	32.385000	0.993045
	32.390000	0.960812
	32.395000	1.015609
	32.400000	1.073629
	32.405000	1.047842
	32.410000	1.005939
	32.415000	1.051066
	32.420000	1.109086
	32.425000	1.076853
	32.430000	1.028502
	32.435000	1.076853
	32.440000	1.121980
	32.445000	1.089746
	32.450000	1.031726
	32.455000	1.073629
	32.460000	1.125203
	32.465000	1.083299
	32.470000	1.034949
	32.475000	1.073629
	32.480000	1.121980
	32.485000	1.083299
	32.490000	1.028502
	32.495000	1.073629
	32.500000	1.121980
	32.505000	1.073629
	32.510000	1.022056
	32.515000	1.063959
	32.520000	1.115533
	32.525000	1.067183
	32.530000	1.025279
	32.535000	1.070406
	32.540000	1.105863
	32.545000	1.076853
	32.550000	1.018832
	32.555000	1.060736
	32.560000	1.109086
	32.565000	1.067183
	32.570000	1.018832
	32.575000	1.057512
	32.580000	1.109086
	32.585000	1.070406
	32.590000	1.025279
	32.595000	1.063959
	32.600000	1.109086
	32.605000	1.070406
	32.610000	1.028502
	32.615000	1.067183
	32.620000	1.105863
	32.625000	1.073629
	32.630000	1.025279
	32.635000	1.067183
	32.640000	1.105863
	32.645000	1.076853
	32.650000	1.028502
	32.655000	1.070406
	32.660000	1.118756
	32.665000	1.083299
	32.670000	1.034949
	32.675000	1.073629
	32.680000	1.121980
	32.685000	1.076853
	32.690000	1.034949
	32.695000	1.070406
	32.700000	1.112310
	32.705000	1.076853
	32.710000	1.028502
	32.715000	1.070406
	32.720000	1.118756
	32.725000	1.073629
	32.730000	1.031726
	32.735000	1.070406
	32.740000	1.109086
	32.745000	1.067183
	32.750000	1.022056
	32.755000	1.057512
	32.760000	1.092969
	32.765000	1.051066
	32.770000	0.999492
	32.775000	1.034949
	32.780000	1.080076
	32.785000	1.038172
	32.790000	0.980152
	32.795000	1.009162
	32.800000	1.047842
	32.805000	0.999492
	32.810000	0.944695
	32.815000	0.973705
	32.820000	1.009162
	32.825000	0.964035
	32.830000	0.896345
	32.835000	0.925355
	32.840000	0.954365
	32.845000	0.893121
	32.850000	0.831877
	32.855000	0.851218
	32.860000	0.880228
	32.865000	0.818984
	32.870000	0.760963
	32.875000	0.773857
	32.880000	0.793197
	32.885000	0.735177
	32.890000	0.654593
	32.895000	0.661039
	32.900000	0.670709
	32.905000	0.603019
	32.910000	0.522435
	32.915000	0.525658
	32.920000	0.538552
	32.925000	0.464414
	32.930000	0.390277
	32.935000	0.409617
	32.940000	0.432181
	32.945000	0.361267
	32.950000	0.300023
	32.955000	0.325810
	32.960000	0.358044
	32.965000	0.296800
	32.970000	0.238779
	32.975000	0.264566
	32.980000	0.300023
	32.985000	0.248449
	32.990000	0.190429
	32.995000	0.225886
	33.000000	0.267790
	33.005000	0.209769
	33.010000	0.161419
	33.015000	0.196876
	33.020000	0.242003
	33.025000	0.190429
	33.030000	0.142079
	33.035000	0.183982
	33.040000	0.225886
	33.045000	0.183982
	33.050000	0.138855
	33.055000	0.187206
	33.060000	0.229109
	33.065000	0.187206
	33.070000	0.132408
	33.075000	0.187206
	33.080000	0.235556
	33.085000	0.193652
	33.090000	0.138855
	33.095000	0.190429
	33.100000	0.238779
	33.105000	0.200099
	33.110000	0.151749
	33.115000	0.196876
	33.120000	0.242003
	33.125000	0.206546
	33.130000	0.154972
	33.135000	0.200099
	33.140000	0.254896
	33.145000	0.212992
	33.150000	0.171089
	33.155000	0.216216
	33.160000	0.267790
	33.165000	0.219439
	33.170000	0.174312
	33.175000	0.222663
	33.180000	0.274236
	33.185000	0.225886
	33.190000	0.180759
	33.195000	0.229109
	33.200000	0.277460
	33.205000	0.242003
	33.210000	0.193652
	33.215000	0.235556
	33.220000	0.290353
	33.225000	0.242003
	33.230000	0.196876
	33.235000	0.245226
	33.240000	0.296800
	33.245000	0.258119
	33.250000	0.206546
	33.255000	0.258119
	33.260000	0.303247
	33.265000	0.248449
	33.270000	0.209769
	33.275000	0.261343
	33.280000	0.309693
	33.285000	0.258119
	33.290000	0.219439
	33.295000	0.267790
	33.300000	0.316140
	33.305000	0.264566
	33.310000	0.222663
	33.315000	0.274236
	33.320000	0.316140
	33.325000	0.274236
	33.330000	0.229109
	33.335000	0.277460
	33.340000	0.325810
	33.345000	0.277460
	33.350000	0.232333
	33.355000	0.277460
	33.360000	0.335480
	33.365000	0.287130
	33.370000	0.238779
	33.375000	0.283906
	33.380000	0.329033
	33.385000	0.283906
	33.390000	0.238779
	33.395000	0.287130
	33.400000	0.332257
	33.405000	0.283906
	33.410000	0.245226
	33.415000	0.290353
	33.420000	0.338703
	33.425000	0.287130
	33.430000	0.248449
	33.435000	0.287130
	33.440000	0.345150
	33.445000	0.287130
	33.450000	0.238779
	33.455000	0.290353
	33.460000	0.341927
	33.465000	0.287130
	33.470000	0.242003
	33.475000	0.293576
	33.480000	0.341927
	33.485000	0.293576
	33.490000	0.245226
	33.495000	0.293576
	33.500000	0.338703
	33.505000	0.293576
	33.510000	0.251673
	33.515000	0.290353
	33.520000	0.348374
	33.525000	0.300023
	33.530000	0.248449
	33.535000	0.303247
	33.540000	0.345150
	33.545000	0.303247
	33.550000	0.258119
	33.555000	0.303247
	33.560000	0.351597
	33.565000	0.309693
	33.570000	0.261343
	33.575000	0.309693
	33.580000	0.367714
	33.585000	0.309693
	33.590000	0.264566
	33.595000	0.316140
	33.600000	0.361267
	33.605000	0.309693
	33.610000	0.267790
	33.615000	0.319363
	33.620000	0.367714
	33.625000	0.319363
	33.630000	0.271013
	33.635000	0.325810
	33.640000	0.361267
	33.645000	0.319363
	33.650000	0.274236
	33.655000	0.319363
	33.660000	0.370937
	33.665000	0.322587
	33.670000	0.274236
	33.675000	0.319363
	33.680000	0.367714
	33.685000	0.322587
	33.690000	0.267790
	33.695000	0.329033
	33.700000	0.367714
	33.705000	0.325810
	33.710000	0.277460
	33.715000	0.335480
	33.720000	0.370937
	33.725000	0.316140
	33.730000	0.277460
	33.735000	0.325810
	33.740000	0.374160
	33.745000	0.325810
	33.750000	0.280683
	33.755000	0.325810
	33.760000	0.377384
	33.765000	0.325810
	33.770000	0.283906
	33.775000	0.332257
	33.780000	0.380607
	33.785000	0.325810
	33.790000	0.280683
	33.795000	0.329033
	33.800000	0.374160
	33.805000	0.329033
	33.810000	0.277460
	33.815000	0.325810
	33.820000	0.380607
	33.825000	0.329033
	33.830000	0.280683
	33.835000	0.332257
	33.840000	0.380607
	33.845000	0.325810
	33.850000	0.280683
	33.855000	0.332257
	33.860000	0.380607
	33.865000	0.322587
	33.870000	0.280683
	33.875000	0.335480
	33.880000	0.374160
	33.885000	0.329033
	33.890000	0.290353
	33.895000	0.338703
	33.900000	0.387054
	33.905000	0.329033
	33.910000	0.280683
	33.915000	0.348374
	33.920000	0.374160
	33.925000	0.332257
	33.930000	0.280683
	33.935000	0.338703
	33.940000	0.387054
	33.945000	0.335480
	33.950000	0.290353
	33.955000	0.341927
	33.960000	0.387054
	33.965000	0.329033
	33.970000	0.290353
	33.975000	0.345150
	33.980000	0.390277
	33.985000	0.341927
	33.990000	0.296800
	33.995000	0.348374
	34.000000	0.399947
	34.005000	0.335480
	34.010000	0.296800
	34.015000	0.354820
	34.020000	0.390277
	34.025000	0.348374
	34.030000	0.293576
	34.035000	0.351597
	34.040000	0.396724
	34.045000	0.345150
	34.050000	0.309693
	34.055000	0.354820
	34.060000	0.393501
	34.065000	0.345150
	34.070000	0.306470
	34.075000	0.361267
	34.080000	0.406394
	34.085000	0.348374
	34.090000	0.303247
	34.095000	0.364490
	34.100000	0.403171
	34.105000	0.348374
	34.110000	0.309693
	34.115000	0.361267
	34.120000	0.406394
	34.125000	0.358044
	34.130000	0.309693
	34.135000	0.361267
	34.140000	0.406394
	34.145000	0.348374
	34.150000	0.309693
	34.155000	0.367714
	34.160000	0.409617
	34.165000	0.354820
	34.170000	0.306470
	34.175000	0.364490
	34.180000	0.406394
	34.185000	0.354820
	34.190000	0.316140
	34.195000	0.370937
	34.200000	0.406394
	34.205000	0.354820
	34.210000	0.316140
	34.215000	0.380607
	34.220000	0.422511
	34.225000	0.358044
	34.230000	0.325810
	34.235000	0.377384
	34.240000	0.416064
	34.245000	0.367714
	34.250000	0.316140
	34.255000	0.374160
	34.260000	0.412841
	34.265000	0.367714
	34.270000	0.319363
	34.275000	0.377384
	34.280000	0.422511
	34.285000	0.367714
	34.290000	0.329033
	34.295000	0.383830
	34.300000	0.419287
	34.305000	0.370937
	34.310000	0.329033
	34.315000	0.383830
	34.320000	0.432181
	34.325000	0.370937
	34.330000	0.332257
	34.335000	0.387054
	34.340000	0.419287
	34.345000	0.367714
	34.350000	0.329033
	34.355000	0.387054
	34.360000	0.435404
	34.365000	0.370937
	34.370000	0.329033
	34.375000	0.377384
	34.380000	0.428957
	34.385000	0.370937
	34.390000	0.332257
	34.395000	0.387054
	34.400000	0.432181
	34.405000	0.374160
	34.410000	0.335480
	34.415000	0.387054
	34.420000	0.425734
	34.425000	0.367714
	34.430000	0.325810
	34.435000	0.393501
	34.440000	0.435404
	34.445000	0.374160
	34.450000	0.329033
	34.455000	0.390277
	34.460000	0.428957
	34.465000	0.377384
	34.470000	0.335480
	34.475000	0.396724
	34.480000	0.425734
	34.485000	0.370937
	34.490000	0.338703
	34.495000	0.387054
	34.500000	0.432181
	34.505000	0.374160
	34.510000	0.338703
	34.515000	0.390277
	34.520000	0.428957
	34.525000	0.374160
	34.530000	0.335480
	34.535000	0.396724
	34.540000	0.435404
	34.545000	0.377384
	34.550000	0.341927
	34.555000	0.390277
	34.560000	0.432181
	34.565000	0.370937
	34.570000	0.332257
	34.575000	0.403171
	34.580000	0.438628
	34.585000	0.374160
	34.590000	0.338703
	34.595000	0.393501
	34.600000	0.441851
	34.605000	0.383830
	34.610000	0.348374
	34.615000	0.399947
	34.620000	0.435404
	34.625000	0.377384
	34.630000	0.345150
	34.635000	0.399947
	34.640000	0.445074
	34.645000	0.377384
	34.650000	0.345150
	34.655000	0.403171
	34.660000	0.448298
	34.665000	0.387054
	34.670000	0.348374
	34.675000	0.406394
	34.680000	0.451521
	34.685000	0.396724
	34.690000	0.351597
	34.695000	0.406394
	34.700000	0.448298
	34.705000	0.387054
	34.710000	0.361267
	34.715000	0.412841
	34.720000	0.454744
	34.725000	0.383830
	34.730000	0.351597
	34.735000	0.412841
	34.740000	0.457968
	34.745000	0.396724
	34.750000	0.361267
	34.755000	0.416064
	34.760000	0.457968
	34.765000	0.393501
	34.770000	0.361267
	34.775000	0.419287
	34.780000	0.457968
	34.785000	0.399947
	34.790000	0.361267
	34.795000	0.419287
	34.800000	0.464414
	34.805000	0.406394
	34.810000	0.364490
	34.815000	0.428957
	34.820000	0.461191
	34.825000	0.409617
	34.830000	0.374160
	34.835000	0.425734
	34.840000	0.470861
	34.845000	0.406394
	34.850000	0.377384
	34.855000	0.432181
	34.860000	0.467638
	34.865000	0.416064
	34.870000	0.380607
	34.875000	0.438628
	34.880000	0.467638
	34.885000	0.416064
	34.890000	0.370937
	34.895000	0.432181
	34.900000	0.470861
	34.905000	0.412841
	34.910000	0.370937
	34.915000	0.438628
	34.920000	0.467638
	34.925000	0.416064
	34.930000	0.380607
	34.935000	0.432181
	34.940000	0.467638
	34.945000	0.409617
	34.950000	0.374160
	34.955000	0.432181
	34.960000	0.467638
	34.965000	0.409617
	34.970000	0.367714
	34.975000	0.425734
	34.980000	0.461191
	34.985000	0.409617
	34.990000	0.380607
	34.995000	0.435404
	35.000000	0.470861
	35.005000	0.409617
	35.010000	0.370937
	35.015000	0.428957
	35.020000	0.467638
	35.025000	0.412841
	35.030000	0.374160
	35.035000	0.435404
	35.040000	0.474085
	35.045000	0.406394
	35.050000	0.367714
	35.055000	0.428957
	35.060000	0.467638
	35.065000	0.409617
	35.070000	0.374160
	35.075000	0.438628
	35.080000	0.464414
	35.085000	0.403171
	35.090000	0.367714
	35.095000	0.428957
	35.100000	0.464414
	35.105000	0.403171
	35.110000	0.367714
	35.115000	0.432181
	35.120000	0.457968
	35.125000	0.393501
	35.130000	0.361267
	35.135000	0.419287
	35.140000	0.461191
	35.145000	0.390277
	35.150000	0.354820
	35.155000	0.425734
	35.160000	0.445074
	35.165000	0.383830
	35.170000	0.354820
	35.175000	0.406394
	35.180000	0.451521
	35.185000	0.387054
	35.190000	0.351597
	35.195000	0.412841
	35.200000	0.445074
	35.205000	0.377384
	35.210000	0.348374
	35.215000	0.406394
	35.220000	0.441851
	35.225000	0.377384
	35.230000	0.351597
	35.235000	0.412841
	35.240000	0.435404
	35.245000	0.380607
	35.250000	0.345150
	35.255000	0.406394
	35.260000	0.438628
	35.265000	0.380607
	35.270000	0.345150
	35.275000	0.403171
	35.280000	0.438628
	35.285000	0.380607
	35.290000	0.338703
	35.295000	0.399947
	35.300000	0.445074
	35.305000	0.380607
	35.310000	0.338703
	35.315000	0.403171
	35.320000	0.441851
	35.325000	0.374160
	35.330000	0.341927
	35.335000	0.403171
	35.340000	0.428957
	35.345000	0.383830
	35.350000	0.341927
	35.355000	0.399947
	35.360000	0.438628
	35.365000	0.364490
	35.370000	0.335480
	35.375000	0.403171
	35.380000	0.438628
	35.385000	0.377384
	35.390000	0.338703
	35.395000	0.403171
	35.400000	0.435404
	35.405000	0.370937
	35.410000	0.335480
	35.415000	0.399947
	35.420000	0.432181
	35.425000	0.364490
	35.430000	0.338703
	35.435000	0.399947
	35.440000	0.435404
	35.445000	0.367714
	35.450000	0.335480
	35.455000	0.403171
	35.460000	0.425734
	35.465000	0.370937
	35.470000	0.329033
	35.475000	0.390277
	35.480000	0.428957
	35.485000	0.367714
	35.490000	0.335480
	35.495000	0.393501
	35.500000	0.425734
	35.505000	0.370937
	35.510000	0.335480
	35.515000	0.390277
	35.520000	0.419287
	35.525000	0.361267
	35.530000	0.335480
	35.535000	0.390277
	35.540000	0.425734
	35.545000	0.361267
	35.550000	0.325810
	35.555000	0.387054
	35.560000	0.422511
	35.565000	0.354820
	35.570000	0.325810
	35.575000	0.380607
	35.580000	0.412841
	35.585000	0.351597
	35.590000	0.312917
	35.595000	0.377384
	35.600000	0.403171
	35.605000	0.341927
	35.610000	0.306470
	35.615000	0.364490
	35.620000	0.396724
	35.625000	0.335480
	35.630000	0.296800
	35.635000	0.361267
	35.640000	0.387054
	35.645000	0.325810
	35.650000	0.293576
	35.655000	0.354820
	35.660000	0.387054
	35.665000	0.319363
	35.670000	0.290353
	35.675000	0.348374
	35.680000	0.380607
	35.685000	0.309693
	35.690000	0.271013
	35.695000	0.338703
	35.700000	0.367714
	35.705000	0.306470
	35.710000	0.274236
	35.715000	0.332257
	35.720000	0.361267
	35.725000	0.300023
	35.730000	0.271013
	35.735000	0.329033
	35.740000	0.358044
	35.745000	0.303247
	35.750000	0.267790
	35.755000	0.325810
	35.760000	0.354820
	35.765000	0.296800
	35.770000	0.264566
	35.775000	0.329033
	35.780000	0.354820
	35.785000	0.296800
	35.790000	0.264566
	35.795000	0.322587
	35.800000	0.361267
	35.805000	0.296800
	35.810000	0.264566
	35.815000	0.322587
	35.820000	0.358044
	35.825000	0.300023
	35.830000	0.261343
	35.835000	0.329033
	35.840000	0.351597
	35.845000	0.293576
	35.850000	0.261343
	35.855000	0.322587
	35.860000	0.364490
	35.865000	0.296800
	35.870000	0.264566
	35.875000	0.319363
	35.880000	0.354820
	35.885000	0.283906
	35.890000	0.261343
	35.895000	0.329033
	35.900000	0.351597
	35.905000	0.300023
	35.910000	0.264566
	35.915000	0.322587
	35.920000	0.354820
	35.925000	0.296800
	35.930000	0.264566
	35.935000	0.329033
	35.940000	0.358044
	35.945000	0.290353
	35.950000	0.271013
	35.955000	0.332257
	35.960000	0.358044
	35.965000	0.296800
	35.970000	0.271013
	35.975000	0.332257
	35.980000	0.358044
	35.985000	0.296800
	35.990000	0.271013
	35.995000	0.325810
	36.000000	0.358044
	36.005000	0.300023
	36.010000	0.267790
	36.015000	0.329033
	36.020000	0.358044
	36.025000	0.293576
	36.030000	0.267790
	36.035000	0.332257
	36.040000	0.364490
	36.045000	0.303247
	36.050000	0.267790
	36.055000	0.338703
	36.060000	0.364490
	36.065000	0.303247
	36.070000	0.274236
	36.075000	0.332257
	36.080000	0.364490
	36.085000	0.303247
	36.090000	0.271013
	36.095000	0.335480
	36.100000	0.364490
	36.105000	0.303247
	36.110000	0.274236
	36.115000	0.332257
	36.120000	0.361267
	36.125000	0.306470
	36.130000	0.267790
	36.135000	0.341927
	36.140000	0.367714
	36.145000	0.303247
	36.150000	0.271013
	36.155000	0.335480
	36.160000	0.374160
	36.165000	0.303247
	36.170000	0.277460
	36.175000	0.341927
	36.180000	0.367714
	36.185000	0.303247
	36.190000	0.277460
	36.195000	0.338703
	36.200000	0.367714
	36.205000	0.309693
	36.210000	0.280683
	36.215000	0.341927
	36.220000	0.370937
	36.225000	0.306470
	36.230000	0.280683
	36.235000	0.348374
	36.240000	0.370937
	36.245000	0.312917
	36.250000	0.277460
	36.255000	0.354820
	36.260000	0.370937
	36.265000	0.309693
	36.270000	0.283906
	36.275000	0.341927
	36.280000	0.374160
	36.285000	0.312917
	36.290000	0.283906
	36.295000	0.341927
	36.300000	0.374160
	36.305000	0.306470
	36.310000	0.283906
	36.315000	0.354820
	36.320000	0.377384
	36.325000	0.309693
	36.330000	0.283906
	36.335000	0.348374
	36.340000	0.370937
	36.345000	0.312917
	36.350000	0.287130
	36.355000	0.351597
	36.360000	0.377384
	36.365000	0.316140
	36.370000	0.287130
	36.375000	0.351597
	36.380000	0.374160
	36.385000	0.309693
	36.390000	0.283906
	36.395000	0.354820
	36.400000	0.383830
	36.405000	0.312917
	36.410000	0.287130
	36.415000	0.358044
	36.420000	0.370937
	36.425000	0.322587
	36.430000	0.283906
	36.435000	0.351597
	36.440000	0.380607
	36.445000	0.316140
	36.450000	0.296800
	36.455000	0.361267
	36.460000	0.377384
	36.465000	0.316140
	36.470000	0.283906
	36.475000	0.348374
	36.480000	0.380607
	36.485000	0.316140
	36.490000	0.293576
	36.495000	0.348374
	36.500000	0.380607
	36.505000	0.306470
	36.510000	0.293576
	36.515000	0.354820
	36.520000	0.377384
	36.525000	0.312917
	36.530000	0.280683
	36.535000	0.348374
	36.540000	0.383830
	36.545000	0.309693
	36.550000	0.283906
	36.555000	0.354820
	36.560000	0.374160
	36.565000	0.306470
	36.570000	0.283906
	36.575000	0.348374
	36.580000	0.367714
	36.585000	0.303247
	36.590000	0.283906
	36.595000	0.348374
	36.600000	0.367714
	36.605000	0.312917
	36.610000	0.277460
	36.615000	0.345150
	36.620000	0.370937
	36.625000	0.306470
	36.630000	0.283906
	36.635000	0.345150
	36.640000	0.367714
	36.645000	0.293576
	36.650000	0.283906
	36.655000	0.348374
	36.660000	0.367714
	36.665000	0.303247
	36.670000	0.280683
	36.675000	0.351597
	36.680000	0.374160
	36.685000	0.300023
	36.690000	0.280683
	36.695000	0.354820
	36.700000	0.367714
	36.705000	0.306470
	36.710000	0.274236
	36.715000	0.351597
	36.720000	0.383830
	36.725000	0.306470
	36.730000	0.290353
	36.735000	0.348374
	36.740000	0.377384
	36.745000	0.309693
	36.750000	0.283906
	36.755000	0.348374
	36.760000	0.380607
	36.765000	0.306470
	36.770000	0.283906
	36.775000	0.345150
	36.780000	0.377384
	36.785000	0.306470
	36.790000	0.287130
	36.795000	0.354820
	36.800000	0.380607
	36.805000	0.319363
	36.810000	0.293576
	36.815000	0.361267
	36.820000	0.387054
	36.825000	0.316140
	36.830000	0.296800
	36.835000	0.354820
	36.840000	0.390277
	36.845000	0.316140
	36.850000	0.296800
	36.855000	0.361267
	36.860000	0.387054
	36.865000	0.319363
	36.870000	0.306470
	36.875000	0.367714
	36.880000	0.380607
	36.885000	0.322587
	36.890000	0.296800
	36.895000	0.374160
	36.900000	0.396724
	36.905000	0.322587
	36.910000	0.309693
	36.915000	0.370937
	36.920000	0.393501
	36.925000	0.329033
	36.930000	0.306470
	36.935000	0.377384
	36.940000	0.393501
	36.945000	0.325810
	36.950000	0.312917
	36.955000	0.377384
	36.960000	0.399947
	36.965000	0.335480
	36.970000	0.309693
	36.975000	0.383830
	36.980000	0.403171
	36.985000	0.332257
	36.990000	0.319363
	36.995000	0.380607
	37.000000	0.409617
	37.005000	0.335480
	37.010000	0.316140
	37.015000	0.383830
	37.020000	0.399947
	37.025000	0.341927
	37.030000	0.319363
	37.035000	0.383830
	37.040000	0.399947
	37.045000	0.338703
	37.050000	0.312917
	37.055000	0.380607
	37.060000	0.406394
	37.065000	0.335480
	37.070000	0.316140
	37.075000	0.387054
	37.080000	0.399947
	37.085000	0.341927
	37.090000	0.316140
	37.095000	0.380607
	37.100000	0.396724
	37.105000	0.335480
	37.110000	0.316140
	37.115000	0.374160
	37.120000	0.409617
	37.125000	0.329033
	37.130000	0.312917
	37.135000	0.377384
	37.140000	0.399947
	37.145000	0.329033
	37.150000	0.312917
	37.155000	0.380607
	37.160000	0.393501
	37.165000	0.325810
	37.170000	0.312917
	37.175000	0.383830
	37.180000	0.390277
	37.185000	0.322587
	37.190000	0.306470
	37.195000	0.377384
	37.200000	0.393501
	37.205000	0.319363
	37.210000	0.309693
	37.215000	0.370937
	37.220000	0.390277
	37.225000	0.319363
	37.230000	0.300023
	37.235000	0.374160
	37.240000	0.390277
	37.245000	0.322587
	37.250000	0.306470
	37.255000	0.367714
	37.260000	0.387054
	37.265000	0.319363
	37.270000	0.300023
	37.275000	0.367714
	37.280000	0.390277
	37.285000	0.312917
	37.290000	0.303247
	37.295000	0.354820
	37.300000	0.377384
	37.305000	0.312917
	37.310000	0.296800
	37.315000	0.361267
	37.320000	0.380607
	37.325000	0.312917
	37.330000	0.293576
	37.335000	0.364490
	37.340000	0.390277
	37.345000	0.312917
	37.350000	0.293576
	37.355000	0.358044
	37.360000	0.383830
	37.365000	0.312917
	37.370000	0.293576
	37.375000	0.364490
	37.380000	0.367714
	37.385000	0.309693
	37.390000	0.296800
	37.395000	0.374160
	37.400000	0.377384
	37.405000	0.309693
	37.410000	0.290353
	37.415000	0.364490
	37.420000	0.377384
	37.425000	0.303247
	37.430000	0.290353
	37.435000	0.354820
	37.440000	0.377384
	37.445000	0.309693
	37.450000	0.293576
	37.455000	0.358044
	37.460000	0.377384
	37.465000	0.303247
	37.470000	0.290353
	37.475000	0.364490
	37.480000	0.377384
	37.485000	0.312917
	37.490000	0.293576
	37.495000	0.364490
	37.500000	0.380607
	37.505000	0.312917
	37.510000	0.290353
	37.515000	0.361267
	37.520000	0.380607
	37.525000	0.303247
	37.530000	0.293576
	37.535000	0.367714
	37.540000	0.374160
	37.545000	0.303247
	37.550000	0.290353
	37.555000	0.364490
	37.560000	0.377384
	37.565000	0.309693
	37.570000	0.293576
	37.575000	0.374160
	37.580000	0.387054
	37.585000	0.316140
	37.590000	0.293576
	37.595000	0.361267
	37.600000	0.390277
	37.605000	0.309693
	37.610000	0.296800
	37.615000	0.367714
	37.620000	0.380607
	37.625000	0.309693
	37.630000	0.296800
	37.635000	0.370937
	37.640000	0.380607
	37.645000	0.316140
	37.650000	0.300023
	37.655000	0.370937
	37.660000	0.387054
	37.665000	0.309693
	37.670000	0.306470
	37.675000	0.377384
	37.680000	0.387054
	37.685000	0.319363
	37.690000	0.303247
	37.695000	0.377384
	37.700000	0.383830
	37.705000	0.312917
	37.710000	0.306470
	37.715000	0.374160
	37.720000	0.393501
	37.725000	0.312917
	37.730000	0.309693
	37.735000	0.377384
	37.740000	0.387054
	37.745000	0.319363
	37.750000	0.309693
	37.755000	0.377384
	37.760000	0.396724
	37.765000	0.322587
	37.770000	0.319363
	37.775000	0.390277
	37.780000	0.399947
	37.785000	0.329033
	37.790000	0.309693
	37.795000	0.383830
	37.800000	0.387054
	37.805000	0.332257
	37.810000	0.309693
	37.815000	0.380607
	37.820000	0.393501
	37.825000	0.329033
	37.830000	0.312917
	37.835000	0.387054
	37.840000	0.393501
	37.845000	0.329033
	37.850000	0.319363
	37.855000	0.387054
	37.860000	0.390277
	37.865000	0.329033
	37.870000	0.316140
	37.875000	0.377384
	37.880000	0.393501
	37.885000	0.329033
	37.890000	0.309693
	37.895000	0.387054
	37.900000	0.387054
	37.905000	0.322587
	37.910000	0.319363
	37.915000	0.377384
	37.920000	0.396724
	37.925000	0.322587
	37.930000	0.316140
	37.935000	0.377384
	37.940000	0.387054
	37.945000	0.325810
	37.950000	0.316140
	37.955000	0.380607
	37.960000	0.396724
	37.965000	0.325810
	37.970000	0.312917
	37.975000	0.383830
	37.980000	0.390277
	37.985000	0.325810
	37.990000	0.316140
	37.995000	0.383830
	38.000000	0.390277
	38.005000	0.325810
	38.010000	0.309693
	38.015000	0.383830
	38.020000	0.390277
	38.025000	0.325810
	38.030000	0.309693
	38.035000	0.374160
	38.040000	0.383830
	38.045000	0.309693
	38.050000	0.312917
	38.055000	0.370937
	38.060000	0.380607
	38.065000	0.316140
	38.070000	0.309693
	38.075000	0.380607
	38.080000	0.383830
	38.085000	0.306470
	38.090000	0.309693
	38.095000	0.370937
	38.100000	0.383830
	38.105000	0.309693
	38.110000	0.306470
	38.115000	0.370937
	38.120000	0.377384
	38.125000	0.309693
	38.130000	0.300023
	38.135000	0.364490
	38.140000	0.377384
	38.145000	0.303247
	38.150000	0.300023
	38.155000	0.367714
	38.160000	0.377384
	38.165000	0.306470
	38.170000	0.300023
	38.175000	0.361267
	38.180000	0.367714
	38.185000	0.309693
	38.190000	0.293576
	38.195000	0.361267
	38.200000	0.374160
	38.205000	0.300023
	38.210000	0.293576
	38.215000	0.361267
	38.220000	0.370937
	38.225000	0.296800
	38.230000	0.293576
	38.235000	0.358044
	38.240000	0.364490
	38.245000	0.293576
	38.250000	0.290353
	38.255000	0.364490
	38.260000	0.361267
	38.265000	0.296800
	38.270000	0.283906
	38.275000	0.358044
	38.280000	0.364490
	38.285000	0.290353
	38.290000	0.290353
	38.295000	0.358044
	38.300000	0.364490
	38.305000	0.287130
	38.310000	0.293576
	38.315000	0.358044
	38.320000	0.364490
	38.325000	0.296800
	38.330000	0.287130
	38.335000	0.354820
	38.340000	0.367714
	38.345000	0.300023
	38.350000	0.290353
	38.355000	0.348374
	38.360000	0.364490
	38.365000	0.290353
	38.370000	0.283906
	38.375000	0.358044
	38.380000	0.364490
	38.385000	0.287130
	38.390000	0.287130
	38.395000	0.354820
	38.400000	0.361267
	38.405000	0.296800
	38.410000	0.287130
	38.415000	0.358044
	38.420000	0.358044
	38.425000	0.296800
	38.430000	0.280683
	38.435000	0.354820
	38.440000	0.361267
	38.445000	0.293576
	38.450000	0.280683
	38.455000	0.354820
	38.460000	0.364490
	38.465000	0.290353
	38.470000	0.290353
	38.475000	0.361267
	38.480000	0.367714
	38.485000	0.287130
	38.490000	0.287130
	38.495000	0.358044
	38.500000	0.367714
	38.505000	0.300023
	38.510000	0.290353
	38.515000	0.358044
	38.520000	0.367714
	38.525000	0.300023
	38.530000	0.296800
	38.535000	0.361267
	38.540000	0.370937
	38.545000	0.300023
	38.550000	0.293576
	38.555000	0.361267
	38.560000	0.374160
	38.565000	0.296800
	38.570000	0.296800
	38.575000	0.361267
	38.580000	0.367714
	38.585000	0.296800
	38.590000	0.296800
	38.595000	0.364490
	38.600000	0.367714
	38.605000	0.300023
	38.610000	0.300023
	38.615000	0.367714
	38.620000	0.370937
	38.625000	0.303247
	38.630000	0.296800
	38.635000	0.364490
	38.640000	0.370937
	38.645000	0.300023
	38.650000	0.300023
	38.655000	0.367714
	38.660000	0.367714
	38.665000	0.300023
	38.670000	0.290353
	38.675000	0.364490
	38.680000	0.374160
	38.685000	0.303247
	38.690000	0.303247
	38.695000	0.377384
	38.700000	0.403171
	38.705000	0.358044
	38.710000	0.374160
	38.715000	0.477308
	38.720000	0.512765
	38.725000	0.490201
	38.730000	0.512765
	38.735000	0.615912
	38.740000	0.651369
	38.745000	0.622359
	38.750000	0.644923
	38.755000	0.731953
	38.760000	0.760963
	38.765000	0.715836
	38.770000	0.725507
	38.775000	0.806090
	38.780000	0.822207
	38.785000	0.770634
	38.790000	0.777080
	38.795000	0.851218
	38.800000	0.864111
	38.805000	0.796420
	38.810000	0.815761
	38.815000	0.889898
	38.820000	0.893121
	38.825000	0.838324
	38.830000	0.847994
	38.835000	0.912461
	38.840000	0.918908
	38.845000	0.864111
	38.850000	0.870558
	38.855000	0.938248
	38.860000	0.947918
	38.865000	0.883451
	38.870000	0.893121
	38.875000	0.951142
	38.880000	0.957588
	38.885000	0.899568
	38.890000	0.899568
	38.895000	0.970482
	38.900000	0.967258
	38.905000	0.906015
	38.910000	0.909238
	38.915000	0.970482
	38.920000	0.970482
	38.925000	0.918908
	38.930000	0.912461
	38.935000	0.980152
	38.940000	0.983375
	38.945000	0.912461
	38.950000	0.922131
	38.955000	0.983375
	38.960000	0.983375
	38.965000	0.925355
	38.970000	0.915685
	38.975000	0.983375
	38.980000	0.980152
	38.985000	0.935025
	38.990000	0.915685
	38.995000	0.989822
	39.000000	0.993045
	39.005000	0.918908
	39.010000	0.922131
	39.015000	0.976929
	39.020000	0.986599
	39.025000	0.918908
	39.030000	0.922131
	39.035000	0.986599
	39.040000	0.980152
	39.045000	0.925355
	39.050000	0.915685
	39.055000	0.980152
	39.060000	0.976929
	39.065000	0.912461
	39.070000	0.918908
	39.075000	0.973705
	39.080000	0.983375
	39.085000	0.918908
	39.090000	0.922131
	39.095000	0.980152
	39.100000	0.983375
	39.105000	0.915685
	39.110000	0.915685
	39.115000	0.980152
	39.120000	0.976929
	39.125000	0.918908
	39.130000	0.915685
	39.135000	0.986599
	39.140000	0.973705
	39.145000	0.915685
	39.150000	0.915685
	39.155000	0.976929
	39.160000	0.970482
	39.165000	0.906015
	39.170000	0.909238
	39.175000	0.967258
	39.180000	0.964035
	39.185000	0.906015
	39.190000	0.896345
	39.195000	0.960812
	39.200000	0.960812
	39.205000	0.889898
	39.210000	0.889898
	39.215000	0.954365
	39.220000	0.951142
	39.225000	0.883451
	39.230000	0.877004
	39.235000	0.935025
	39.240000	0.922131
	39.245000	0.844771
	39.250000	0.841547
	39.255000	0.886674
	39.260000	0.877004
	39.265000	0.789974
	39.270000	0.770634
	39.275000	0.809314
	39.280000	0.786750
	39.285000	0.699720
	39.290000	0.677156
	39.295000	0.712613
	39.300000	0.686826
	39.305000	0.603019
	39.310000	0.577232
	39.315000	0.619136
	39.320000	0.586902
	39.325000	0.496648
	39.330000	0.474085
	39.335000	0.503095
	39.340000	0.467638
	39.345000	0.367714
	39.350000	0.351597
	39.355000	0.377384
	39.360000	0.348374
	39.365000	0.264566
	39.370000	0.242003
	39.375000	0.287130
	39.380000	0.264566
	39.385000	0.180759
	39.390000	0.158195
	39.395000	0.212992
	39.400000	0.193652
	39.405000	0.122738
	39.410000	0.119515
	39.415000	0.164642
	39.420000	0.164642
	39.425000	0.087281
	39.430000	0.087281
	39.435000	0.154972
	39.440000	0.138855
	39.445000	0.067941
	39.450000	0.067941
	39.455000	0.142079
	39.460000	0.135632
	39.465000	0.061495
	39.470000	0.077611
	39.475000	0.138855
	39.480000	0.138855
	39.485000	0.071165
	39.490000	0.074388
	39.495000	0.142079
	39.500000	0.135632
	39.505000	0.067941
	39.510000	0.074388
	39.515000	0.142079
	39.520000	0.142079
	39.525000	0.074388
	39.530000	0.084058
	39.535000	0.148525
	39.540000	0.142079
	39.545000	0.074388
	39.550000	0.077611
	39.555000	0.142079
	39.560000	0.145302
	39.565000	0.077611
	39.570000	0.077611
	39.575000	0.151749
	39.580000	0.138855
	39.585000	0.080835
	39.590000	0.090505
	39.595000	0.151749
	39.600000	0.145302
	39.605000	0.087281
	39.610000	0.087281
	39.615000	0.151749
	39.620000	0.158195
	39.625000	0.090505
	39.630000	0.096952
	39.635000	0.171089
	39.640000	0.167865
	39.645000	0.096952
	39.650000	0.109845
	39.655000	0.171089
	39.660000	0.177536
	39.665000	0.103398
	39.670000	0.113068
	39.675000	0.193652
	39.680000	0.180759
	39.685000	0.119515
	39.690000	0.125962
	39.695000	0.193652
	39.700000	0.193652
	39.705000	0.132408
	39.710000	0.138855
	39.715000	0.203322
	39.720000	0.206546
	39.725000	0.142079
	39.730000	0.151749
	39.735000	0.219439
	39.740000	0.219439
	39.745000	0.151749
	39.750000	0.161419
	39.755000	0.229109
	39.760000	0.222663
	39.765000	0.161419
	39.770000	0.171089
	39.775000	0.235556
	39.780000	0.235556
	39.785000	0.161419
	39.790000	0.174312
	39.795000	0.248449
	39.800000	0.238779
	39.805000	0.161419
	39.810000	0.180759
	39.815000	0.242003
	39.820000	0.238779
	39.825000	0.167865
	39.830000	0.174312
	39.835000	0.254896
	39.840000	0.248449
	39.845000	0.167865
	39.850000	0.187206
	39.855000	0.251673
	39.860000	0.245226
	39.865000	0.174312
	39.870000	0.187206
	39.875000	0.258119
	39.880000	0.248449
	39.885000	0.177536
	39.890000	0.193652
	39.895000	0.258119
	39.900000	0.248449
	39.905000	0.177536
	39.910000	0.196876
	39.915000	0.264566
	39.920000	0.251673
	39.925000	0.193652
	39.930000	0.200099
	39.935000	0.264566
	39.940000	0.261343
	39.945000	0.190429
	39.950000	0.200099
	39.955000	0.274236
	39.960000	0.258119
	39.965000	0.196876
	39.970000	0.206546
	39.975000	0.264566
	39.980000	0.271013
	39.985000	0.193652
	39.990000	0.200099
	39.995000	0.267790
	40.000000	0.267790
	40.005000	0.200099
	40.010000	0.206546
	40.015000	0.271013
	40.020000	0.267790
	40.025000	0.200099
	40.030000	0.206546
	40.035000	0.264566
	40.040000	0.271013
	40.045000	0.196876
	40.050000	0.200099
	40.055000	0.274236
	40.060000	0.271013
	40.065000	0.200099
	40.070000	0.206546
	40.075000	0.277460
	40.080000	0.267790
	40.085000	0.196876
	40.090000	0.209769
	40.095000	0.277460
	40.100000	0.274236
	40.105000	0.206546
	40.110000	0.219439
	40.115000	0.283906
	40.120000	0.274236
	40.125000	0.206546
	40.130000	0.212992
	40.135000	0.287130
	40.140000	0.271013
	40.145000	0.200099
	40.150000	0.212992
	40.155000	0.280683
	40.160000	0.271013
	40.165000	0.203322
	40.170000	0.222663
	40.175000	0.290353
	40.180000	0.280683
	40.185000	0.212992
	40.190000	0.222663
	40.195000	0.283906
	40.200000	0.277460
	40.205000	0.212992
	40.210000	0.219439
	40.215000	0.290353
	40.220000	0.287130
	40.225000	0.212992
	40.230000	0.212992
	40.235000	0.290353
	40.240000	0.283906
	40.245000	0.209769
	40.250000	0.229109
	40.255000	0.290353
	40.260000	0.283906
	40.265000	0.216216
	40.270000	0.229109
	40.275000	0.293576
	40.280000	0.287130
	40.285000	0.212992
	40.290000	0.232333
	40.295000	0.303247
	40.300000	0.290353
	40.305000	0.216216
	40.310000	0.235556
	40.315000	0.296800
	40.320000	0.293576
	40.325000	0.219439
	40.330000	0.235556
	40.335000	0.303247
	40.340000	0.293576
	40.345000	0.216216
	40.350000	0.229109
	40.355000	0.306470
	40.360000	0.293576
	40.365000	0.222663
	40.370000	0.235556
	40.375000	0.309693
	40.380000	0.290353
	40.385000	0.219439
	40.390000	0.245226
	40.395000	0.316140
	40.400000	0.293576
	40.405000	0.229109
	40.410000	0.248449
	40.415000	0.312917
	40.420000	0.296800
	40.425000	0.222663
	40.430000	0.238779
	40.435000	0.312917
	40.440000	0.303247
	40.445000	0.229109
	40.450000	0.235556
	40.455000	0.312917
	40.460000	0.293576
	40.465000	0.225886
	40.470000	0.242003
	40.475000	0.309693
	40.480000	0.296800
	40.485000	0.229109
	40.490000	0.242003
	40.495000	0.319363
	40.500000	0.309693
	40.505000	0.232333
	40.510000	0.242003
	40.515000	0.312917
	40.520000	0.300023
	40.525000	0.232333
	40.530000	0.242003
	40.535000	0.319363
	40.540000	0.296800
	40.545000	0.238779
	40.550000	0.254896
	40.555000	0.312917
	40.560000	0.300023
	40.565000	0.235556
	40.570000	0.248449
	40.575000	0.319363
	40.580000	0.309693
	40.585000	0.235556
	40.590000	0.261343
	40.595000	0.322587
	40.600000	0.309693
	40.605000	0.242003
	40.610000	0.258119
	40.615000	0.322587
	40.620000	0.319363
	40.625000	0.254896
	40.630000	0.261343
	40.635000	0.335480
	40.640000	0.319363
	40.645000	0.248449
	40.650000	0.267790
	40.655000	0.335480
	40.660000	0.329033
	40.665000	0.258119
	40.670000	0.277460
	40.675000	0.341927
	40.680000	0.332257
	40.685000	0.267790
	40.690000	0.283906
	40.695000	0.345150
	40.700000	0.329033
	40.705000	0.261343
	40.710000	0.283906
	40.715000	0.354820
	40.720000	0.341927
	40.725000	0.274236
	40.730000	0.287130
	40.735000	0.358044
	40.740000	0.345150
	40.745000	0.274236
	40.750000	0.287130
	40.755000	0.361267
	40.760000	0.354820
	40.765000	0.274236
	40.770000	0.296800
	40.775000	0.367714
	40.780000	0.354820
	40.785000	0.277460
	40.790000	0.293576
	40.795000	0.361267
	40.800000	0.354820
	40.805000	0.280683
	40.810000	0.296800
	40.815000	0.370937
	40.820000	0.345150
	40.825000	0.283906
	40.830000	0.296800
	40.835000	0.358044
	40.840000	0.348374
	40.845000	0.280683
	40.850000	0.296800
	40.855000	0.364490
	40.860000	0.348374
	40.865000	0.280683
	40.870000	0.300023
	40.875000	0.370937
	40.880000	0.354820
	40.885000	0.271013
	40.890000	0.306470
	40.895000	0.364490
	40.900000	0.348374
	40.905000	0.283906
	40.910000	0.303247
	40.915000	0.364490
	40.920000	0.348374
	40.925000	0.287130
	40.930000	0.287130
	40.935000	0.364490
	40.940000	0.351597
	40.945000	0.287130
	40.950000	0.303247
	40.955000	0.370937
	40.960000	0.351597
	40.965000	0.277460
	40.970000	0.306470
	40.975000	0.364490
	40.980000	0.358044
	40.985000	0.280683
	40.990000	0.300023
	40.995000	0.370937
	41.000000	0.351597
	41.005000	0.280683
	41.010000	0.303247
	41.015000	0.367714
	41.020000	0.354820
	41.025000	0.277460
	41.030000	0.293576
	41.035000	0.364490
	41.040000	0.354820
	41.045000	0.283906
	41.050000	0.296800
	41.055000	0.367714
	41.060000	0.348374
	41.065000	0.277460
	41.070000	0.290353
	41.075000	0.361267
	41.080000	0.338703
	41.085000	0.267790
	41.090000	0.293576
	41.095000	0.351597
	41.100000	0.341927
	41.105000	0.264566
	41.110000	0.283906
	41.115000	0.351597
	41.120000	0.332257
	41.125000	0.264566
	41.130000	0.290353
	41.135000	0.351597
	41.140000	0.325810
	41.145000	0.258119
	41.150000	0.277460
	41.155000	0.348374
	41.160000	0.325810
	41.165000	0.261343
	41.170000	0.287130
	41.175000	0.345150
	41.180000	0.332257
	41.185000	0.254896
	41.190000	0.280683
	41.195000	0.348374
	41.200000	0.329033
	41.205000	0.267790
	41.210000	0.283906
	41.215000	0.348374
	41.220000	0.329033
	41.225000	0.264566
	41.230000	0.283906
	41.235000	0.345150
	41.240000	0.335480
	41.245000	0.261343
	41.250000	0.283906
	41.255000	0.351597
	41.260000	0.332257
	41.265000	0.267790
	41.270000	0.287130
	41.275000	0.354820
	41.280000	0.335480
	41.285000	0.267790
	41.290000	0.287130
	41.295000	0.358044
	41.300000	0.332257
	41.305000	0.271013
	41.310000	0.287130
	41.315000	0.348374
	41.320000	0.329033
	41.325000	0.261343
	41.330000	0.283906
	41.335000	0.348374
	41.340000	0.329033
	41.345000	0.261343
	41.350000	0.280683
	41.355000	0.341927
	41.360000	0.322587
	41.365000	0.261343
	41.370000	0.280683
	41.375000	0.345150
	41.380000	0.325810
	41.385000	0.251673
	41.390000	0.274236
	41.395000	0.341927
	41.400000	0.316140
	41.405000	0.251673
	41.410000	0.267790
	41.415000	0.335480
	41.420000	0.306470
	41.425000	0.242003
	41.430000	0.264566
	41.435000	0.322587
	41.440000	0.303247
	41.445000	0.235556
	41.450000	0.254896
	41.455000	0.322587
	41.460000	0.306470
	41.465000	0.222663
	41.470000	0.254896
	41.475000	0.316140
	41.480000	0.296800
	41.485000	0.229109
	41.490000	0.251673
	41.495000	0.319363
	41.500000	0.290353
	41.505000	0.225886
	41.510000	0.248449
	41.515000	0.309693
	41.520000	0.290353
	41.525000	0.222663
	41.530000	0.251673
	41.535000	0.306470
	41.540000	0.287130
	41.545000	0.229109
	41.550000	0.251673
	41.555000	0.316140
	41.560000	0.290353
	41.565000	0.219439
	41.570000	0.248449
	41.575000	0.316140
	41.580000	0.290353
	41.585000	0.225886
	41.590000	0.248449
	41.595000	0.316140
	41.600000	0.293576
	41.605000	0.229109
	41.610000	0.242003
	41.615000	0.316140
	41.620000	0.283906
	41.625000	0.222663
	41.630000	0.251673
	41.635000	0.319363
	41.640000	0.290353
	41.645000	0.222663
	41.650000	0.254896
	41.655000	0.316140
	41.660000	0.296800
	41.665000	0.229109
	41.670000	0.254896
	41.675000	0.325810
	41.680000	0.290353
	41.685000	0.235556
	41.690000	0.254896
	41.695000	0.319363
	41.700000	0.300023
	41.705000	0.229109
	41.710000	0.258119
	41.715000	0.322587
	41.720000	0.293576
	41.725000	0.232333
	41.730000	0.248449
	41.735000	0.322587
	41.740000	0.293576
	41.745000	0.225886
	41.750000	0.258119
	41.755000	0.322587
	41.760000	0.290353
	41.765000	0.232333
	41.770000	0.248449
	41.775000	0.316140
	41.780000	0.300023
	41.785000	0.232333
	41.790000	0.258119
	41.795000	0.322587
	41.800000	0.300023
	41.805000	0.229109
	41.810000	0.258119
	41.815000	0.319363
	41.820000	0.303247
	41.825000	0.232333
	41.830000	0.258119
	41.835000	0.325810
	41.840000	0.293576
	41.845000	0.232333
	41.850000	0.254896
	41.855000	0.319363
	41.860000	0.306470
	41.865000	0.235556
	41.870000	0.261343
	41.875000	0.319363
	41.880000	0.293576
	41.885000	0.238779
	41.890000	0.254896
	41.895000	0.322587
	41.900000	0.306470
	41.905000	0.232333
	41.910000	0.271013
	41.915000	0.319363
	41.920000	0.300023
	41.925000	0.238779
	41.930000	0.261343
	41.935000	0.325810
	41.940000	0.293576
	41.945000	0.229109
	41.950000	0.261343
	41.955000	0.325810
	41.960000	0.303247
	41.965000	0.229109
	41.970000	0.261343
	41.975000	0.322587
	41.980000	0.296800
	41.985000	0.238779
	41.990000	0.261343
	41.995000	0.332257
	42.000000	0.300023
	42.005000	0.235556
	42.010000	0.267790
	42.015000	0.325810
	42.020000	0.300023
	42.025000	0.232333
	42.030000	0.258119
	42.035000	0.329033
	42.040000	0.306470
	42.045000	0.238779
	42.050000	0.264566
	42.055000	0.325810
	42.060000	0.303247
	42.065000	0.242003
	42.070000	0.271013
	42.075000	0.325810
	42.080000	0.303247
	42.085000	0.232333
	42.090000	0.258119
	42.095000	0.329033
	42.100000	0.303247
	42.105000	0.245226
	42.110000	0.264566
	42.115000	0.322587
	42.120000	0.296800
	42.125000	0.235556
	42.130000	0.267790
	42.135000	0.329033
	42.140000	0.303247
	42.145000	0.225886
	42.150000	0.264566
	42.155000	0.329033
	42.160000	0.300023
	42.165000	0.238779
	42.170000	0.261343
	42.175000	0.325810
	42.180000	0.296800
	42.185000	0.229109
	42.190000	0.271013
	42.195000	0.322587
	42.200000	0.296800
	42.205000	0.238779
	42.210000	0.261343
	42.215000	0.329033
	42.220000	0.296800
	42.225000	0.232333
	42.230000	0.254896
	42.235000	0.322587
	42.240000	0.296800
	42.245000	0.225886
	42.250000	0.261343
	42.255000	0.325810
	42.260000	0.293576
	42.265000	0.235556
	42.270000	0.258119
	42.275000	0.322587
	42.280000	0.300023
	42.285000	0.235556
	42.290000	0.254896
	42.295000	0.319363
	42.300000	0.296800
	42.305000	0.232333
	42.310000	0.264566
	42.315000	0.319363
	42.320000	0.303247
	42.325000	0.232333
	42.330000	0.264566
	42.335000	0.329033
	42.340000	0.296800
	42.345000	0.238779
	42.350000	0.258119
	42.355000	0.325810
	42.360000	0.293576
	42.365000	0.229109
	42.370000	0.258119
	42.375000	0.316140
	42.380000	0.290353
	42.385000	0.232333
	42.390000	0.267790
	42.395000	0.329033
	42.400000	0.296800
	42.405000	0.229109
	42.410000	0.258119
	42.415000	0.322587
	42.420000	0.306470
	42.425000	0.235556
	42.430000	0.264566
	42.435000	0.329033
	42.440000	0.306470
	42.445000	0.232333
	42.450000	0.261343
	42.455000	0.332257
	42.460000	0.306470
	42.465000	0.232333
	42.470000	0.267790
	42.475000	0.329033
	42.480000	0.293576
	42.485000	0.238779
	42.490000	0.267790
	42.495000	0.325810
	42.500000	0.303247
	42.505000	0.232333
	42.510000	0.264566
	42.515000	0.329033
	42.520000	0.296800
	42.525000	0.232333
	42.530000	0.261343
	42.535000	0.329033
	42.540000	0.296800
	42.545000	0.229109
	42.550000	0.261343
	42.555000	0.332257
	42.560000	0.300023
	42.565000	0.229109
	42.570000	0.271013
	42.575000	0.325810
	42.580000	0.290353
	42.585000	0.235556
	42.590000	0.261343
	42.595000	0.332257
	42.600000	0.296800
	42.605000	0.232333
	42.610000	0.267790
	42.615000	0.325810
	42.620000	0.296800
	42.625000	0.238779
	42.630000	0.267790
	42.635000	0.329033
	42.640000	0.296800
	42.645000	0.235556
	42.650000	0.267790
	42.655000	0.329033
	42.660000	0.296800
	42.665000	0.238779
	42.670000	0.271013
	42.675000	0.332257
	42.680000	0.296800
	42.685000	0.235556
	42.690000	0.267790
	42.695000	0.329033
	42.700000	0.300023
	42.705000	0.238779
	42.710000	0.274236
	42.715000	0.332257
	42.720000	0.300023
	42.725000	0.238779
	42.730000	0.274236
	42.735000	0.332257
	42.740000	0.296800
	42.745000	0.235556
	42.750000	0.271013
	42.755000	0.329033
	42.760000	0.300023
	42.765000	0.229109
	42.770000	0.271013
	42.775000	0.329033
	42.780000	0.303247
	42.785000	0.235556
	42.790000	0.264566
	42.795000	0.325810
	42.800000	0.293576
	42.805000	0.229109
	42.810000	0.271013
	42.815000	0.332257
	42.820000	0.300023
	42.825000	0.235556
	42.830000	0.277460
	42.835000	0.325810
	42.840000	0.296800
	42.845000	0.242003
	42.850000	0.274236
	42.855000	0.335480
	42.860000	0.309693
	42.865000	0.245226
	42.870000	0.274236
	42.875000	0.338703
	42.880000	0.309693
	42.885000	0.242003
	42.890000	0.274236
	42.895000	0.335480
	42.900000	0.306470
	42.905000	0.235556
	42.910000	0.280683
	42.915000	0.341927
	42.920000	0.303247
	42.925000	0.242003
	42.930000	0.277460
	42.935000	0.335480
	42.940000	0.306470
	42.945000	0.245226
	42.950000	0.280683
	42.955000	0.335480
	42.960000	0.300023
	42.965000	0.235556
	42.970000	0.271013
	42.975000	0.345150
	42.980000	0.303247
	42.985000	0.238779
	42.990000	0.274236
	42.995000	0.338703
	43.000000	0.300023
	43.005000	0.242003
	43.010000	0.274236
	43.015000	0.335480
	43.020000	0.296800
	43.025000	0.238779
	43.030000	0.274236
	43.035000	0.335480
	43.040000	0.300023
	43.045000	0.238779
	43.050000	0.271013
	43.055000	0.329033
	43.060000	0.306470
	43.065000	0.235556
	43.070000	0.277460
	43.075000	0.335480
	43.080000	0.300023
	43.085000	0.242003
	43.090000	0.280683
	43.095000	0.332257
	43.100000	0.296800
	43.105000	0.238779
	43.110000	0.264566
	43.115000	0.329033
	43.120000	0.300023
	43.125000	0.238779
	43.130000	0.280683
	43.135000	0.332257
	43.140000	0.293576
	43.145000	0.235556
	43.150000	0.277460
	43.155000	0.335480
	43.160000	0.300023
	43.165000	0.248449
	43.170000	0.274236
	43.175000	0.329033
	43.180000	0.296800
	43.185000	0.235556
	43.190000	0.277460
	43.195000	0.335480
	43.200000	0.296800
	43.205000	0.238779
	43.210000	0.274236
	43.215000	0.335480
	43.220000	0.306470
	43.225000	0.242003
	43.230000	0.274236
	43.235000	0.332257
	43.240000	0.303247
	43.245000	0.235556
	43.250000	0.271013
	43.255000	0.341927
	43.260000	0.300023
	43.265000	0.235556
	43.270000	0.267790
	43.275000	0.325810
	43.280000	0.296800
	43.285000	0.232333
	43.290000	0.277460
	43.295000	0.332257
	43.300000	0.306470
	43.305000	0.245226
	43.310000	0.287130
	43.315000	0.358044
	43.320000	0.338703
	43.325000	0.296800
	43.330000	0.358044
	43.335000	0.441851
	43.340000	0.441851
	43.345000	0.416064
	43.350000	0.493425
	43.355000	0.583679
	43.360000	0.586902
	43.365000	0.554668
	43.370000	0.628806
	43.375000	0.699720
	43.380000	0.683603
	43.385000	0.651369
	43.390000	0.706166
	43.395000	0.767410
	43.400000	0.741623
	43.405000	0.699720
	43.410000	0.738400
	43.415000	0.812537
	43.420000	0.777080
	43.425000	0.731953
	43.430000	0.777080
	43.435000	0.841547
	43.440000	0.809314
	43.445000	0.767410
	43.450000	0.802867
	43.455000	0.860888
	43.460000	0.844771
	43.465000	0.786750
	43.470000	0.835101
	43.475000	0.893121
	43.480000	0.864111
	43.485000	0.818984
	43.490000	0.857664
	43.495000	0.918908
	43.500000	0.889898
	43.505000	0.841547
	43.510000	0.873781
	43.515000	0.938248
	43.520000	0.912461
	43.525000	0.860888
	43.530000	0.896345
	43.535000	0.954365
	43.540000	0.925355
	43.545000	0.877004
	43.550000	0.915685
	43.555000	0.973705
	43.560000	0.944695
	43.565000	0.902791
	43.570000	0.928578
	43.575000	0.983375
	43.580000	0.957588
	43.585000	0.912461
	43.590000	0.954365
	43.595000	0.996269
	43.600000	0.970482
	43.605000	0.909238
	43.610000	0.947918
	43.615000	1.009162
	43.620000	0.970482
	43.625000	0.915685
	43.630000	0.957588
	43.635000	1.009162
	43.640000	0.973705
	43.645000	0.918908
	43.650000	0.960812
	43.655000	1.005939
	43.660000	0.970482
	43.665000	0.915685
	43.670000	0.954365
	43.675000	0.999492
	43.680000	0.967258
	43.685000	0.918908
	43.690000	0.944695
	43.695000	0.993045
	43.700000	0.960812
	43.705000	0.906015
	43.710000	0.935025
	43.715000	0.986599
	43.720000	0.947918
	43.725000	0.889898
	43.730000	0.922131
	43.735000	0.983375
	43.740000	0.941472
	43.745000	0.896345
	43.750000	0.928578
	43.755000	0.973705
	43.760000	0.944695
	43.765000	0.880228
	43.770000	0.915685
	43.775000	0.957588
	43.780000	0.925355
	43.785000	0.877004
	43.790000	0.909238
	43.795000	0.954365
	43.800000	0.909238
	43.805000	0.860888
	43.810000	0.896345
	43.815000	0.941472
	43.820000	0.906015
	43.825000	0.847994
	43.830000	0.880228
	43.835000	0.925355
	43.840000	0.889898
	43.845000	0.831877
	43.850000	0.877004
	43.855000	0.909238
	43.860000	0.870558
	43.865000	0.818984
	43.870000	0.851218
	43.875000	0.893121
	43.880000	0.854441
	43.885000	0.799644
	43.890000	0.825431
	43.895000	0.857664
	43.900000	0.815761
	43.905000	0.754517
	43.910000	0.770634
	43.915000	0.809314
	43.920000	0.760963
	43.925000	0.706166
	43.930000	0.725507
	43.935000	0.757740
	43.940000	0.709390
	43.945000	0.638476
	43.950000	0.661039
	43.955000	0.690050
	43.960000	0.628806
	43.965000	0.564339
	43.970000	0.574009
	43.975000	0.599796
	43.980000	0.541775
	43.985000	0.467638
	43.990000	0.477308
	43.995000	0.496648
	44.000000	0.432181
	44.005000	0.361267
	44.010000	0.367714
	44.015000	0.387054
	44.020000	0.325810
	44.025000	0.248449
	44.030000	0.267790
	44.035000	0.300023
	44.040000	0.238779
	44.045000	0.174312
	44.050000	0.200099
	44.055000	0.222663
	44.060000	0.167865
	44.065000	0.106622
	44.070000	0.129185
	44.075000	0.171089
	44.080000	0.122738
	44.085000	0.058271
	44.090000	0.087281
	44.095000	0.122738
	44.100000	0.080835
	44.105000	0.019591
	44.110000	0.058271
	44.115000	0.109845
	44.120000	0.064718
	44.125000	0.006697
	44.130000	0.042154
	44.135000	0.090505
	44.140000	0.058271
	44.145000	0.003474
	44.150000	0.035708
	44.155000	0.087281
	44.160000	0.048601
	44.165000	0.003474
	44.170000	0.045378
	44.175000	0.090505
	44.180000	0.048601
	44.185000	-0.006196
	44.190000	0.051825
	44.195000	0.100175
	44.200000	0.058271
	44.205000	0.016368
	44.210000	0.061495
	44.215000	0.106622
	44.220000	0.077611
	44.225000	0.022814
	44.230000	0.067941
	44.235000	0.119515
	44.240000	0.080835
	44.245000	0.035708
	44.250000	0.080835
	44.255000	0.132408
	44.260000	0.096952
	44.265000	0.045378
	44.270000	0.093728
	44.275000	0.138855
	44.280000	0.103398
	44.285000	0.058271
	44.290000	0.103398
	44.295000	0.158195
	44.300000	0.116292
	44.305000	0.058271
	44.310000	0.109845
	44.315000	0.164642
	44.320000	0.122738
	44.325000	0.077611
	44.330000	0.119515
	44.335000	0.177536
	44.340000	0.132408
	44.345000	0.087281
	44.350000	0.122738
	44.355000	0.177536
	44.360000	0.132408
	44.365000	0.093728
	44.370000	0.135632
	44.375000	0.190429
	44.380000	0.145302
	44.385000	0.100175
	44.390000	0.142079
	44.395000	0.190429
	44.400000	0.154972
	44.405000	0.103398
	44.410000	0.148525
	44.415000	0.196876
	44.420000	0.151749
	44.425000	0.106622
	44.430000	0.154972
	44.435000	0.206546
	44.440000	0.154972
	44.445000	0.103398
	44.450000	0.158195
	44.455000	0.206546
	44.460000	0.164642
	44.465000	0.116292
	44.470000	0.161419
	44.475000	0.209769
	44.480000	0.151749
	44.485000	0.109845
	44.490000	0.154972
	44.495000	0.203322
	44.500000	0.161419
	44.505000	0.109845
	44.510000	0.154972
	44.515000	0.203322
	44.520000	0.154972
	44.525000	0.100175
	44.530000	0.154972
	44.535000	0.203322
	44.540000	0.154972
	44.545000	0.113068
	44.550000	0.164642
	44.555000	0.203322
	44.560000	0.161419
	44.565000	0.106622
	44.570000	0.161419
	44.575000	0.209769
	44.580000	0.167865
	44.585000	0.113068
	44.590000	0.164642
	44.595000	0.216216
	44.600000	0.171089
	44.605000	0.129185
	44.610000	0.167865
	44.615000	0.216216
	44.620000	0.180759
	44.625000	0.122738
	44.630000	0.174312
	44.635000	0.229109
	44.640000	0.183982
	44.645000	0.135632
	44.650000	0.190429
	44.655000	0.235556
	44.660000	0.187206
	44.665000	0.142079
	44.670000	0.193652
	44.675000	0.242003
	44.680000	0.200099
	44.685000	0.148525
	44.690000	0.200099
	44.695000	0.248449
	44.700000	0.203322
	44.705000	0.158195
	44.710000	0.212992
	44.715000	0.261343
	44.720000	0.212992
	44.725000	0.164642
	44.730000	0.212992
	44.735000	0.261343
	44.740000	0.222663
	44.745000	0.161419
	44.750000	0.219439
	44.755000	0.267790
	44.760000	0.222663
	44.765000	0.171089
	44.770000	0.216216
	44.775000	0.264566
	44.780000	0.222663
	44.785000	0.174312
	44.790000	0.209769
	44.795000	0.271013
	44.800000	0.222663
	44.805000	0.171089
	44.810000	0.219439
	44.815000	0.271013
	44.820000	0.219439
	44.825000	0.167865
	44.830000	0.222663
	44.835000	0.274236
	44.840000	0.212992
	44.845000	0.167865
	44.850000	0.222663
	44.855000	0.267790
	44.860000	0.222663
	44.865000	0.171089
	44.870000	0.222663
	44.875000	0.267790
	44.880000	0.225886
	44.885000	0.171089
	44.890000	0.229109
	44.895000	0.267790
	44.900000	0.219439
	44.905000	0.164642
	44.910000	0.229109
	44.915000	0.277460
	44.920000	0.219439
	44.925000	0.171089
	44.930000	0.222663
	44.935000	0.274236
	44.940000	0.232333
	44.945000	0.174312
	44.950000	0.225886
	44.955000	0.271013
	44.960000	0.222663
	44.965000	0.177536
	44.970000	0.232333
	44.975000	0.277460
	44.980000	0.229109
	44.985000	0.174312
	44.990000	0.225886
	44.995000	0.267790
	45.000000	0.225886
	45.005000	0.171089
	45.010000	0.229109
	45.015000	0.277460
	45.020000	0.232333
	45.025000	0.183982
	45.030000	0.229109
	45.035000	0.274236
	45.040000	0.229109
	45.045000	0.174312
	45.050000	0.229109
	45.055000	0.277460
	45.060000	0.225886
	45.065000	0.177536
	45.070000	0.222663
	45.075000	0.280683
	45.080000	0.229109
	45.085000	0.177536
	45.090000	0.232333
	45.095000	0.280683
	45.100000	0.232333
	45.105000	0.177536
	45.110000	0.229109
	45.115000	0.280683
	45.120000	0.229109
	45.125000	0.183982
	45.130000	0.242003
	45.135000	0.277460
	45.140000	0.232333
	45.145000	0.183982
	45.150000	0.232333
	45.155000	0.290353
	45.160000	0.232333
	45.165000	0.190429
	45.170000	0.235556
	45.175000	0.283906
	45.180000	0.235556
	45.185000	0.190429
	45.190000	0.238779
	45.195000	0.290353
	45.200000	0.238779
	45.205000	0.193652
	45.210000	0.245226
	45.215000	0.293576
	45.220000	0.245226
	45.225000	0.190429
	45.230000	0.242003
	45.235000	0.290353
	45.240000	0.238779
	45.245000	0.193652
	45.250000	0.248449
	45.255000	0.296800
	45.260000	0.245226
	45.265000	0.200099
	45.270000	0.251673
	45.275000	0.300023
	45.280000	0.245226
	45.285000	0.193652
	45.290000	0.254896
	45.295000	0.300023
	45.300000	0.248449
	45.305000	0.196876
	45.310000	0.251673
	45.315000	0.296800
	45.320000	0.245226
	45.325000	0.200099
	45.330000	0.251673
	45.335000	0.296800
	45.340000	0.245226
	45.345000	0.200099
	45.350000	0.251673
	45.355000	0.300023
	45.360000	0.251673
	45.365000	0.209769
	45.370000	0.258119
	45.375000	0.306470
	45.380000	0.248449
	45.385000	0.203322
	45.390000	0.254896
	45.395000	0.309693
	45.400000	0.248449
	45.405000	0.203322
	45.410000	0.258119
	45.415000	0.306470
	45.420000	0.254896
	45.425000	0.206546
	45.430000	0.254896
	45.435000	0.306470
	45.440000	0.251673
	45.445000	0.209769
	45.450000	0.261343
	45.455000	0.303247
	45.460000	0.254896
	45.465000	0.209769
	45.470000	0.264566
	45.475000	0.303247
	45.480000	0.258119
	45.485000	0.209769
	45.490000	0.258119
	45.495000	0.309693
	45.500000	0.251673
	45.505000	0.212992
	45.510000	0.267790
	45.515000	0.306470
	45.520000	0.261343
	45.525000	0.212992
	45.530000	0.271013
	45.535000	0.312917
	45.540000	0.251673
	45.545000	0.209769
	45.550000	0.271013
	45.555000	0.312917
	45.560000	0.258119
	45.565000	0.216216
	45.570000	0.267790
	45.575000	0.316140
	45.580000	0.267790
	45.585000	0.219439
	45.590000	0.271013
	45.595000	0.319363
	45.600000	0.261343
	45.605000	0.219439
	45.610000	0.274236
	45.615000	0.316140
	45.620000	0.261343
	45.625000	0.225886
	45.630000	0.277460
	45.635000	0.319363
	45.640000	0.264566
	45.645000	0.219439
	45.650000	0.277460
	45.655000	0.322587
	45.660000	0.261343
	45.665000	0.222663
	45.670000	0.287130
	45.675000	0.325810
	45.680000	0.267790
	45.685000	0.229109
	45.690000	0.280683
	45.695000	0.329033
	45.700000	0.277460
	45.705000	0.232333
	45.710000	0.287130
	45.715000	0.335480
	45.720000	0.277460
	45.725000	0.235556
	45.730000	0.287130
	45.735000	0.332257
	45.740000	0.280683
	45.745000	0.229109
	45.750000	0.287130
	45.755000	0.335480
	45.760000	0.277460
	45.765000	0.238779
	45.770000	0.290353
	45.775000	0.338703
	45.780000	0.287130
	45.785000	0.235556
	45.790000	0.290353
	45.795000	0.335480
	45.800000	0.290353
	45.805000	0.248449
	45.810000	0.300023
	45.815000	0.335480
	45.820000	0.293576
	45.825000	0.245226
	45.830000	0.300023
	45.835000	0.338703
	45.840000	0.293576
	45.845000	0.248449
	45.850000	0.296800
	45.855000	0.338703
	45.860000	0.287130
	45.865000	0.251673
	45.870000	0.290353
	45.875000	0.341927
	45.880000	0.283906
	45.885000	0.242003
	45.890000	0.296800
	45.895000	0.338703
	45.900000	0.290353
	45.905000	0.245226
	45.910000	0.296800
	45.915000	0.341927
	45.920000	0.277460
	45.925000	0.245226
	45.930000	0.296800
	45.935000	0.338703
	45.940000	0.274236
	45.945000	0.232333
	45.950000	0.293576
	45.955000	0.329033
	45.960000	0.277460
	45.965000	0.232333
	45.970000	0.287130
	45.975000	0.322587
	45.980000	0.274236
	45.985000	0.232333
	45.990000	0.283906
	45.995000	0.329033
	46.000000	0.264566
	46.005000	0.219439
	46.010000	0.277460
	46.015000	0.316140
	46.020000	0.258119
	46.025000	0.212992
	46.030000	0.264566
	46.035000	0.309693
	46.040000	0.251673
	46.045000	0.209769
	46.050000	0.258119
	46.055000	0.303247
	46.060000	0.248449
	46.065000	0.200099
	46.070000	0.258119
	46.075000	0.296800
	46.080000	0.238779
	46.085000	0.193652
	46.090000	0.258119
	46.095000	0.290353
	46.100000	0.238779
	46.105000	0.196876
	46.110000	0.251673
	46.115000	0.287130
	46.120000	0.232333
	46.125000	0.187206
	46.130000	0.245226
	46.135000	0.283906
	46.140000	0.229109
	46.145000	0.187206
	46.150000	0.242003
	46.155000	0.277460
	46.160000	0.232333
	46.165000	0.187206
	46.170000	0.245226
	46.175000	0.287130
	46.180000	0.225886
	46.185000	0.183982
	46.190000	0.245226
	46.195000	0.290353
	46.200000	0.225886
	46.205000	0.187206
	46.210000	0.251673
	46.215000	0.283906
	46.220000	0.229109
	46.225000	0.190429
	46.230000	0.245226
	46.235000	0.283906
	46.240000	0.222663
	46.245000	0.193652
	46.250000	0.251673
	46.255000	0.293576
	46.260000	0.232333
	46.265000	0.193652
	46.270000	0.251673
	46.275000	0.290353
	46.280000	0.232333
	46.285000	0.193652
	46.290000	0.248449
	46.295000	0.290353
	46.300000	0.232333
	46.305000	0.196876
	46.310000	0.254896
	46.315000	0.290353
	46.320000	0.238779
	46.325000	0.193652
	46.330000	0.251673
	46.335000	0.300023
	46.340000	0.235556
	46.345000	0.200099
	46.350000	0.258119
	46.355000	0.296800
	46.360000	0.242003
	46.365000	0.203322
	46.370000	0.254896
	46.375000	0.296800
	46.380000	0.242003
	46.385000	0.206546
	46.390000	0.261343
	46.395000	0.300023
	46.400000	0.238779
	46.405000	0.206546
	46.410000	0.264566
	46.415000	0.306470
	46.420000	0.238779
	46.425000	0.209769
	46.430000	0.264566
	46.435000	0.300023
	46.440000	0.251673
	46.445000	0.206546
	46.450000	0.261343
	46.455000	0.303247
	46.460000	0.245226
	46.465000	0.209769
	46.470000	0.261343
	46.475000	0.296800
	46.480000	0.242003
	46.485000	0.206546
	46.490000	0.261343
	46.495000	0.309693
	46.500000	0.248449
	46.505000	0.212992
	46.510000	0.267790
	46.515000	0.306470
	46.520000	0.238779
	46.525000	0.200099
	46.530000	0.264566
	46.535000	0.306470
	46.540000	0.248449
	46.545000	0.203322
	46.550000	0.274236
	46.555000	0.303247
	46.560000	0.245226
	46.565000	0.212992
	46.570000	0.267790
	46.575000	0.303247
	46.580000	0.248449
	46.585000	0.209769
	46.590000	0.267790
	46.595000	0.306470
	46.600000	0.245226
	46.605000	0.212992
	46.610000	0.267790
	46.615000	0.303247
	46.620000	0.245226
	46.625000	0.209769
	46.630000	0.274236
	46.635000	0.303247
	46.640000	0.245226
	46.645000	0.209769
	46.650000	0.277460
	46.655000	0.312917
	46.660000	0.245226
	46.665000	0.209769
	46.670000	0.271013
	46.675000	0.300023
	46.680000	0.245226
	46.685000	0.209769
	46.690000	0.274236
	46.695000	0.306470
	46.700000	0.245226
	46.705000	0.209769
	46.710000	0.274236
	46.715000	0.309693
	46.720000	0.242003
	46.725000	0.209769
	46.730000	0.267790
	46.735000	0.303247
	46.740000	0.245226
	46.745000	0.209769
	46.750000	0.261343
	46.755000	0.306470
	46.760000	0.245226
	46.765000	0.206546
	46.770000	0.271013
	46.775000	0.303247
	46.780000	0.242003
	46.785000	0.206546
	46.790000	0.267790
	46.795000	0.296800
	46.800000	0.232333
	46.805000	0.206546
	46.810000	0.267790
	46.815000	0.293576
	46.820000	0.235556
	46.825000	0.206546
	46.830000	0.267790
	46.835000	0.303247
	46.840000	0.235556
	46.845000	0.200099
	46.850000	0.261343
	46.855000	0.293576
