2024/7/11 	 15:08:47 
 This file comes from Vt only measurement 	 1.000000E-1 
 Voltage Sensitivity 	 0.000000E+0 
 Sampling rate 	 200 
 Number of samples per channel 	 -1 
 No filter from Labview 	 	 	 
 	 
 ***End_of_Header*** 
 	 Time 	  Voltage 	 Filtered Voltage 	 
	0.000000	-0.476806
	0.005000	-0.363989
	0.010000	-0.351095
	0.015000	-0.463913
	0.020000	-0.473583
	0.025000	-0.360765
	0.030000	-0.354319
	0.035000	-0.460690
	0.040000	-0.473583
	0.045000	-0.367212
	0.050000	-0.347872
	0.055000	-0.457466
	0.060000	-0.470360
	0.065000	-0.360765
	0.070000	-0.354319
	0.075000	-0.457466
	0.080000	-0.463913
	0.085000	-0.357542
	0.090000	-0.344649
	0.095000	-0.460690
	0.100000	-0.470360
	0.105000	-0.357542
	0.110000	-0.344649
	0.115000	-0.457466
	0.120000	-0.467136
	0.125000	-0.357542
	0.130000	-0.344649
	0.135000	-0.457466
	0.140000	-0.463913
	0.145000	-0.357542
	0.150000	-0.341425
	0.155000	-0.457466
	0.160000	-0.463913
	0.165000	-0.351095
	0.170000	-0.344649
	0.175000	-0.454243
	0.180000	-0.463913
	0.185000	-0.354319
	0.190000	-0.341425
	0.195000	-0.447796
	0.200000	-0.457466
	0.205000	-0.354319
	0.210000	-0.341425
	0.215000	-0.447796
	0.220000	-0.457466
	0.225000	-0.351095
	0.230000	-0.341425
	0.235000	-0.451019
	0.240000	-0.460690
	0.245000	-0.347872
	0.250000	-0.334979
	0.255000	-0.451019
	0.260000	-0.457466
	0.265000	-0.344649
	0.270000	-0.334979
	0.275000	-0.444573
	0.280000	-0.454243
	0.285000	-0.341425
	0.290000	-0.334979
	0.295000	-0.441349
	0.300000	-0.444573
	0.305000	-0.334979
	0.310000	-0.331755
	0.315000	-0.441349
	0.320000	-0.438126
	0.325000	-0.334979
	0.330000	-0.325308
	0.335000	-0.441349
	0.340000	-0.447796
	0.345000	-0.328532
	0.350000	-0.322085
	0.355000	-0.431679
	0.360000	-0.441349
	0.365000	-0.334979
	0.370000	-0.331755
	0.375000	-0.434903
	0.380000	-0.438126
	0.385000	-0.331755
	0.390000	-0.322085
	0.395000	-0.431679
	0.400000	-0.438126
	0.405000	-0.328532
	0.410000	-0.318862
	0.415000	-0.431679
	0.420000	-0.428456
	0.425000	-0.318862
	0.430000	-0.315638
	0.435000	-0.425233
	0.440000	-0.425233
	0.445000	-0.315638
	0.450000	-0.312415
	0.455000	-0.422009
	0.460000	-0.422009
	0.465000	-0.309192
	0.470000	-0.315638
	0.475000	-0.422009
	0.480000	-0.418786
	0.485000	-0.312415
	0.490000	-0.309192
	0.495000	-0.418786
	0.500000	-0.412339
	0.505000	-0.309192
	0.510000	-0.305968
	0.515000	-0.418786
	0.520000	-0.415563
	0.525000	-0.305968
	0.530000	-0.302745
	0.535000	-0.418786
	0.540000	-0.412339
	0.545000	-0.299522
	0.550000	-0.299522
	0.555000	-0.409116
	0.560000	-0.409116
	0.565000	-0.302745
	0.570000	-0.299522
	0.575000	-0.405892
	0.580000	-0.405892
	0.585000	-0.299522
	0.590000	-0.293075
	0.595000	-0.405892
	0.600000	-0.402669
	0.605000	-0.293075
	0.610000	-0.293075
	0.615000	-0.405892
	0.620000	-0.399446
	0.625000	-0.289852
	0.630000	-0.293075
	0.635000	-0.405892
	0.640000	-0.402669
	0.645000	-0.293075
	0.650000	-0.289852
	0.655000	-0.402669
	0.660000	-0.402669
	0.665000	-0.286628
	0.670000	-0.293075
	0.675000	-0.396222
	0.680000	-0.392999
	0.685000	-0.283405
	0.690000	-0.289852
	0.695000	-0.392999
	0.700000	-0.392999
	0.705000	-0.276958
	0.710000	-0.283405
	0.715000	-0.392999
	0.720000	-0.380106
	0.725000	-0.276958
	0.730000	-0.283405
	0.735000	-0.389776
	0.740000	-0.386552
	0.745000	-0.280181
	0.750000	-0.276958
	0.755000	-0.386552
	0.760000	-0.383329
	0.765000	-0.276958
	0.770000	-0.273735
	0.775000	-0.392999
	0.780000	-0.376882
	0.785000	-0.264065
	0.790000	-0.270511
	0.795000	-0.383329
	0.800000	-0.376882
	0.805000	-0.264065
	0.810000	-0.267288
	0.815000	-0.380106
	0.820000	-0.370436
	0.825000	-0.267288
	0.830000	-0.270511
	0.835000	-0.373659
	0.840000	-0.367212
	0.845000	-0.257618
	0.850000	-0.270511
	0.855000	-0.376882
	0.860000	-0.376882
	0.865000	-0.254395
	0.870000	-0.264065
	0.875000	-0.376882
	0.880000	-0.363989
	0.885000	-0.251171
	0.890000	-0.264065
	0.895000	-0.370436
	0.900000	-0.363989
	0.905000	-0.257618
	0.910000	-0.264065
	0.915000	-0.370436
	0.920000	-0.363989
	0.925000	-0.257618
	0.930000	-0.267288
	0.935000	-0.373659
	0.940000	-0.367212
	0.945000	-0.257618
	0.950000	-0.257618
	0.955000	-0.370436
	0.960000	-0.360765
	0.965000	-0.254395
	0.970000	-0.257618
	0.975000	-0.370436
	0.980000	-0.351095
	0.985000	-0.241501
	0.990000	-0.257618
	0.995000	-0.370436
	1.000000	-0.354319
	1.005000	-0.241501
	1.010000	-0.254395
	1.015000	-0.360765
	1.020000	-0.347872
	1.025000	-0.235054
	1.030000	-0.244725
	1.035000	-0.351095
	1.040000	-0.341425
	1.045000	-0.225384
	1.050000	-0.241501
	1.055000	-0.341425
	1.060000	-0.328532
	1.065000	-0.212491
	1.070000	-0.209268
	1.075000	-0.318862
	1.080000	-0.309192
	1.085000	-0.180257
	1.090000	-0.186704
	1.095000	-0.299522
	1.100000	-0.280181
	1.105000	-0.154470
	1.110000	-0.167364
	1.115000	-0.276958
	1.120000	-0.244725
	1.125000	-0.135130
	1.130000	-0.148024
	1.135000	-0.247948
	1.140000	-0.231831
	1.145000	-0.112567
	1.150000	-0.122237
	1.155000	-0.225384
	1.160000	-0.212491
	1.165000	-0.093227
	1.170000	-0.106120
	1.175000	-0.206044
	1.180000	-0.193151
	1.185000	-0.073886
	1.190000	-0.083557
	1.195000	-0.189927
	1.200000	-0.164141
	1.205000	-0.054546
	1.210000	-0.054546
	1.215000	-0.160917
	1.220000	-0.138354
	1.225000	-0.028759
	1.230000	-0.031983
	1.235000	-0.135130
	1.240000	-0.115790
	1.245000	-0.006196
	1.250000	-0.006196
	1.255000	-0.109343
	1.260000	-0.083557
	1.265000	0.029261
	1.270000	0.019591
	1.275000	-0.067440
	1.280000	-0.051323
	1.285000	0.055048
	1.290000	0.061495
	1.295000	-0.038430
	1.300000	-0.009419
	1.305000	0.093728
	1.310000	0.084058
	1.315000	-0.012643
	1.320000	0.009921
	1.325000	0.116292
	1.330000	0.106622
	1.335000	0.003474
	1.340000	0.016368
	1.345000	0.119515
	1.350000	0.106622
	1.355000	0.000251
	1.360000	0.022814
	1.365000	0.122738
	1.370000	0.096952
	1.375000	-0.006196
	1.380000	0.019591
	1.385000	0.113068
	1.390000	0.096952
	1.395000	0.000251
	1.400000	0.016368
	1.405000	0.113068
	1.410000	0.093728
	1.415000	-0.009419
	1.420000	0.013144
	1.425000	0.113068
	1.430000	0.096952
	1.435000	-0.012643
	1.440000	0.006697
	1.445000	0.103398
	1.450000	0.080835
	1.455000	-0.012643
	1.460000	-0.002973
	1.465000	0.096952
	1.470000	0.077611
	1.475000	-0.025536
	1.480000	-0.009419
	1.485000	0.093728
	1.490000	0.071165
	1.495000	-0.031983
	1.500000	-0.015866
	1.505000	0.084058
	1.510000	0.061495
	1.515000	-0.035206
	1.520000	-0.022313
	1.525000	0.077611
	1.530000	0.051825
	1.535000	-0.044876
	1.540000	-0.031983
	1.545000	0.071165
	1.550000	0.045378
	1.555000	-0.054546
	1.560000	-0.035206
	1.565000	0.067941
	1.570000	0.045378
	1.575000	-0.057770
	1.580000	-0.035206
	1.585000	0.074388
	1.590000	0.055048
	1.595000	-0.057770
	1.600000	-0.028759
	1.605000	0.071165
	1.610000	0.048601
	1.615000	-0.057770
	1.620000	-0.031983
	1.625000	0.071165
	1.630000	0.048601
	1.635000	-0.048100
	1.640000	-0.028759
	1.645000	0.067941
	1.650000	0.055048
	1.655000	-0.044876
	1.660000	-0.025536
	1.665000	0.074388
	1.670000	0.055048
	1.675000	-0.044876
	1.680000	-0.019089
	1.685000	0.090505
	1.690000	0.061495
	1.695000	-0.035206
	1.700000	-0.015866
	1.705000	0.087281
	1.710000	0.071165
	1.715000	-0.025536
	1.720000	0.003474
	1.725000	0.106622
	1.730000	0.087281
	1.735000	-0.009419
	1.740000	0.019591
	1.745000	0.129185
	1.750000	0.116292
	1.755000	0.026038
	1.760000	0.051825
	1.765000	0.161419
	1.770000	0.151749
	1.775000	0.045378
	1.780000	0.080835
	1.785000	0.177536
	1.790000	0.154972
	1.795000	0.058271
	1.800000	0.080835
	1.805000	0.177536
	1.810000	0.145302
	1.815000	0.042154
	1.820000	0.067941
	1.825000	0.158195
	1.830000	0.132408
	1.835000	0.026038
	1.840000	0.051825
	1.845000	0.148525
	1.850000	0.109845
	1.855000	0.006697
	1.860000	0.019591
	1.865000	0.116292
	1.870000	0.077611
	1.875000	-0.025536
	1.880000	-0.006196
	1.885000	0.084058
	1.890000	0.048601
	1.895000	-0.064216
	1.900000	-0.035206
	1.905000	0.051825
	1.910000	0.019591
	1.915000	-0.096450
	1.920000	-0.070663
	1.925000	0.013144
	1.930000	-0.019089
	1.935000	-0.128684
	1.940000	-0.109343
	1.945000	-0.015866
	1.950000	-0.051323
	1.955000	-0.157694
	1.960000	-0.138354
	1.965000	-0.044876
	1.970000	-0.080333
	1.975000	-0.189927
	1.980000	-0.160917
	1.985000	-0.067440
	1.990000	-0.099673
	1.995000	-0.202821
	2.000000	-0.180257
	2.005000	-0.083557
	2.010000	-0.119014
	2.015000	-0.225384
	2.020000	-0.196374
	2.025000	-0.099673
	2.030000	-0.135130
	2.035000	-0.238278
	2.040000	-0.206044
	2.045000	-0.112567
	2.050000	-0.151247
	2.055000	-0.254395
	2.060000	-0.225384
	2.065000	-0.122237
	2.070000	-0.164141
	2.075000	-0.267288
	2.080000	-0.231831
	2.085000	-0.131907
	2.090000	-0.170587
	2.095000	-0.270511
	2.100000	-0.238278
	2.105000	-0.144800
	2.110000	-0.177034
	2.115000	-0.280181
	2.120000	-0.254395
	2.125000	-0.151247
	2.130000	-0.189927
	2.135000	-0.293075
	2.140000	-0.257618
	2.145000	-0.160917
	2.150000	-0.196374
	2.155000	-0.296298
	2.160000	-0.264065
	2.165000	-0.160917
	2.170000	-0.199597
	2.175000	-0.299522
	2.180000	-0.260841
	2.185000	-0.167364
	2.190000	-0.199597
	2.195000	-0.302745
	2.200000	-0.264065
	2.205000	-0.164141
	2.210000	-0.196374
	2.215000	-0.302745
	2.220000	-0.260841
	2.225000	-0.164141
	2.230000	-0.196374
	2.235000	-0.299522
	2.240000	-0.260841
	2.245000	-0.164141
	2.250000	-0.199597
	2.255000	-0.302745
	2.260000	-0.267288
	2.265000	-0.154470
	2.270000	-0.202821
	2.275000	-0.302745
	2.280000	-0.260841
	2.285000	-0.160917
	2.290000	-0.199597
	2.295000	-0.299522
	2.300000	-0.264065
	2.305000	-0.160917
	2.310000	-0.196374
	2.315000	-0.296298
	2.320000	-0.247948
	2.325000	-0.154470
	2.330000	-0.189927
	2.335000	-0.299522
	2.340000	-0.257618
	2.345000	-0.151247
	2.350000	-0.193151
	2.355000	-0.299522
	2.360000	-0.254395
	2.365000	-0.154470
	2.370000	-0.183481
	2.375000	-0.296298
	2.380000	-0.251171
	2.385000	-0.151247
	2.390000	-0.189927
	2.395000	-0.286628
	2.400000	-0.247948
	2.405000	-0.148024
	2.410000	-0.186704
	2.415000	-0.286628
	2.420000	-0.247948
	2.425000	-0.148024
	2.430000	-0.180257
	2.435000	-0.289852
	2.440000	-0.244725
	2.445000	-0.138354
	2.450000	-0.180257
	2.455000	-0.280181
	2.460000	-0.235054
	2.465000	-0.135130
	2.470000	-0.173811
	2.475000	-0.276958
	2.480000	-0.235054
	2.485000	-0.135130
	2.490000	-0.177034
	2.495000	-0.280181
	2.500000	-0.235054
	2.505000	-0.128684
	2.510000	-0.177034
	2.515000	-0.270511
	2.520000	-0.228608
	2.525000	-0.131907
	2.530000	-0.167364
	2.535000	-0.276958
	2.540000	-0.228608
	2.545000	-0.128684
	2.550000	-0.160917
	2.555000	-0.270511
	2.560000	-0.218938
	2.565000	-0.115790
	2.570000	-0.164141
	2.575000	-0.260841
	2.580000	-0.212491
	2.585000	-0.115790
	2.590000	-0.167364
	2.595000	-0.260841
	2.600000	-0.209268
	2.605000	-0.122237
	2.610000	-0.157694
	2.615000	-0.257618
	2.620000	-0.212491
	2.625000	-0.115790
	2.630000	-0.157694
	2.635000	-0.254395
	2.640000	-0.206044
	2.645000	-0.109343
	2.650000	-0.154470
	2.655000	-0.260841
	2.660000	-0.206044
	2.665000	-0.106120
	2.670000	-0.154470
	2.675000	-0.251171
	2.680000	-0.206044
	2.685000	-0.099673
	2.690000	-0.148024
	2.695000	-0.247948
	2.700000	-0.196374
	2.705000	-0.096450
	2.710000	-0.144800
	2.715000	-0.247948
	2.720000	-0.199597
	2.725000	-0.099673
	2.730000	-0.144800
	2.735000	-0.244725
	2.740000	-0.193151
	2.745000	-0.099673
	2.750000	-0.138354
	2.755000	-0.241501
	2.760000	-0.193151
	2.765000	-0.096450
	2.770000	-0.141577
	2.775000	-0.244725
	2.780000	-0.193151
	2.785000	-0.093227
	2.790000	-0.141577
	2.795000	-0.244725
	2.800000	-0.189927
	2.805000	-0.096450
	2.810000	-0.141577
	2.815000	-0.241501
	2.820000	-0.189927
	2.825000	-0.083557
	2.830000	-0.138354
	2.835000	-0.238278
	2.840000	-0.186704
	2.845000	-0.090003
	2.850000	-0.135130
	2.855000	-0.231831
	2.860000	-0.189927
	2.865000	-0.083557
	2.870000	-0.131907
	2.875000	-0.231831
	2.880000	-0.180257
	2.885000	-0.080333
	2.890000	-0.138354
	2.895000	-0.231831
	2.900000	-0.177034
	2.905000	-0.080333
	2.910000	-0.122237
	2.915000	-0.231831
	2.920000	-0.177034
	2.925000	-0.070663
	2.930000	-0.125460
	2.935000	-0.222161
	2.940000	-0.177034
	2.945000	-0.070663
	2.950000	-0.128684
	2.955000	-0.222161
	2.960000	-0.170587
	2.965000	-0.073886
	2.970000	-0.119014
	2.975000	-0.218938
	2.980000	-0.170587
	2.985000	-0.064216
	2.990000	-0.122237
	2.995000	-0.218938
	3.000000	-0.157694
	3.005000	-0.064216
	3.010000	-0.115790
	3.015000	-0.218938
	3.020000	-0.151247
	3.025000	-0.054546
	3.030000	-0.112567
	3.035000	-0.202821
	3.040000	-0.148024
	3.045000	-0.048100
	3.050000	-0.109343
	3.055000	-0.199597
	3.060000	-0.141577
	3.065000	-0.044876
	3.070000	-0.093227
	3.075000	-0.193151
	3.080000	-0.138354
	3.085000	-0.044876
	3.090000	-0.096450
	3.095000	-0.193151
	3.100000	-0.135130
	3.105000	-0.041653
	3.110000	-0.096450
	3.115000	-0.193151
	3.120000	-0.131907
	3.125000	-0.038430
	3.130000	-0.093227
	3.135000	-0.186704
	3.140000	-0.131907
	3.145000	-0.041653
	3.150000	-0.090003
	3.155000	-0.186704
	3.160000	-0.131907
	3.165000	-0.031983
	3.170000	-0.090003
	3.175000	-0.189927
	3.180000	-0.125460
	3.185000	-0.031983
	3.190000	-0.096450
	3.195000	-0.180257
	3.200000	-0.125460
	3.205000	-0.041653
	3.210000	-0.086780
	3.215000	-0.186704
	3.220000	-0.128684
	3.225000	-0.028759
	3.230000	-0.086780
	3.235000	-0.183481
	3.240000	-0.115790
	3.245000	-0.022313
	3.250000	-0.086780
	3.255000	-0.173811
	3.260000	-0.119014
	3.265000	-0.022313
	3.270000	-0.080333
	3.275000	-0.177034
	3.280000	-0.115790
	3.285000	-0.019089
	3.290000	-0.080333
	3.295000	-0.167364
	3.300000	-0.109343
	3.305000	-0.022313
	3.310000	-0.073886
	3.315000	-0.170587
	3.320000	-0.109343
	3.325000	-0.015866
	3.330000	-0.077110
	3.335000	-0.170587
	3.340000	-0.102897
	3.345000	-0.015866
	3.350000	-0.070663
	3.355000	-0.167364
	3.360000	-0.102897
	3.365000	-0.015866
	3.370000	-0.077110
	3.375000	-0.164141
	3.380000	-0.102897
	3.385000	-0.009419
	3.390000	-0.067440
	3.395000	-0.160917
	3.400000	-0.102897
	3.405000	-0.015866
	3.410000	-0.073886
	3.415000	-0.160917
	3.420000	-0.099673
	3.425000	-0.009419
	3.430000	-0.067440
	3.435000	-0.154470
	3.440000	-0.090003
	3.445000	-0.006196
	3.450000	-0.070663
	3.455000	-0.154470
	3.460000	-0.093227
	3.465000	-0.002973
	3.470000	-0.070663
	3.475000	-0.154470
	3.480000	-0.093227
	3.485000	-0.006196
	3.490000	-0.070663
	3.495000	-0.160917
	3.500000	-0.093227
	3.505000	-0.009419
	3.510000	-0.064216
	3.515000	-0.157694
	3.520000	-0.096450
	3.525000	-0.006196
	3.530000	-0.070663
	3.535000	-0.164141
	3.540000	-0.099673
	3.545000	-0.009419
	3.550000	-0.073886
	3.555000	-0.164141
	3.560000	-0.093227
	3.565000	-0.006196
	3.570000	-0.073886
	3.575000	-0.160917
	3.580000	-0.096450
	3.585000	-0.009419
	3.590000	-0.073886
	3.595000	-0.160917
	3.600000	-0.096450
	3.605000	0.000251
	3.610000	-0.064216
	3.615000	-0.144800
	3.620000	-0.077110
	3.625000	0.006697
	3.630000	-0.054546
	3.635000	-0.135130
	3.640000	-0.060993
	3.645000	0.032484
	3.650000	-0.031983
	3.655000	-0.119014
	3.660000	-0.044876
	3.665000	0.045378
	3.670000	-0.012643
	3.675000	-0.099673
	3.680000	-0.025536
	3.685000	0.067941
	3.690000	0.003474
	3.695000	-0.077110
	3.700000	-0.002973
	3.705000	0.090505
	3.710000	0.022814
	3.715000	-0.064216
	3.720000	0.013144
	3.725000	0.103398
	3.730000	0.048601
	3.735000	-0.038430
	3.740000	0.038931
	3.745000	0.129185
	3.750000	0.058271
	3.755000	-0.012643
	3.760000	0.058271
	3.765000	0.145302
	3.770000	0.084058
	3.775000	0.006697
	3.780000	0.077611
	3.785000	0.171089
	3.790000	0.103398
	3.795000	0.032484
	3.800000	0.093728
	3.805000	0.183982
	3.810000	0.122738
	3.815000	0.045378
	3.820000	0.129185
	3.825000	0.212992
	3.830000	0.151749
	3.835000	0.080835
	3.840000	0.151749
	3.845000	0.232333
	3.850000	0.177536
	3.855000	0.100175
	3.860000	0.171089
	3.865000	0.254896
	3.870000	0.196876
	3.875000	0.119515
	3.880000	0.193652
	3.885000	0.277460
	3.890000	0.209769
	3.895000	0.132408
	3.900000	0.212992
	3.905000	0.290353
	3.910000	0.232333
	3.915000	0.151749
	3.920000	0.225886
	3.925000	0.300023
	3.930000	0.238779
	3.935000	0.164642
	3.940000	0.235556
	3.945000	0.312917
	3.950000	0.238779
	3.955000	0.167865
	3.960000	0.232333
	3.965000	0.309693
	3.970000	0.232333
	3.975000	0.161419
	3.980000	0.225886
	3.985000	0.296800
	3.990000	0.238779
	3.995000	0.158195
	4.000000	0.219439
	4.005000	0.300023
	4.010000	0.229109
	4.015000	0.145302
	4.020000	0.209769
	4.025000	0.283906
	4.030000	0.219439
	4.035000	0.138855
	4.040000	0.209769
	4.045000	0.283906
	4.050000	0.212992
	4.055000	0.135632
	4.060000	0.200099
	4.065000	0.277460
	4.070000	0.209769
	4.075000	0.132408
	4.080000	0.203322
	4.085000	0.277460
	4.090000	0.209769
	4.095000	0.129185
	4.100000	0.200099
	4.105000	0.274236
	4.110000	0.209769
	4.115000	0.132408
	4.120000	0.200099
	4.125000	0.274236
	4.130000	0.206546
	4.135000	0.135632
	4.140000	0.206546
	4.145000	0.280683
	4.150000	0.219439
	4.155000	0.148525
	4.160000	0.219439
	4.165000	0.293576
	4.170000	0.225886
	4.175000	0.154972
	4.180000	0.225886
	4.185000	0.300023
	4.190000	0.238779
	4.195000	0.161419
	4.200000	0.229109
	4.205000	0.296800
	4.210000	0.229109
	4.215000	0.154972
	4.220000	0.222663
	4.225000	0.303247
	4.230000	0.222663
	4.235000	0.154972
	4.240000	0.225886
	4.245000	0.293576
	4.250000	0.225886
	4.255000	0.151749
	4.260000	0.229109
	4.265000	0.293576
	4.270000	0.222663
	4.275000	0.154972
	4.280000	0.216216
	4.285000	0.293576
	4.290000	0.219439
	4.295000	0.151749
	4.300000	0.216216
	4.305000	0.290353
	4.310000	0.216216
	4.315000	0.145302
	4.320000	0.209769
	4.325000	0.283906
	4.330000	0.206546
	4.335000	0.125962
	4.340000	0.196876
	4.345000	0.264566
	4.350000	0.187206
	4.355000	0.109845
	4.360000	0.177536
	4.365000	0.245226
	4.370000	0.167865
	4.375000	0.084058
	4.380000	0.148525
	4.385000	0.212992
	4.390000	0.129185
	4.395000	0.051825
	4.400000	0.122738
	4.405000	0.174312
	4.410000	0.093728
	4.415000	0.016368
	4.420000	0.090505
	4.425000	0.142079
	4.430000	0.074388
	4.435000	-0.002973
	4.440000	0.061495
	4.445000	0.125962
	4.450000	0.051825
	4.455000	-0.028759
	4.460000	0.048601
	4.465000	0.106622
	4.470000	0.032484
	4.475000	-0.048100
	4.480000	0.026038
	4.485000	0.090505
	4.490000	0.016368
	4.495000	-0.060993
	4.500000	0.013144
	4.505000	0.071165
	4.510000	-0.006196
	4.515000	-0.080333
	4.520000	-0.002973
	4.525000	0.058271
	4.530000	-0.015866
	4.535000	-0.093227
	4.540000	-0.012643
	4.545000	0.051825
	4.550000	-0.025536
	4.555000	-0.102897
	4.560000	-0.025536
	4.565000	0.038931
	4.570000	-0.041653
	4.575000	-0.112567
	4.580000	-0.031983
	4.585000	0.029261
	4.590000	-0.054546
	4.595000	-0.122237
	4.600000	-0.044876
	4.605000	0.016368
	4.610000	-0.073886
	4.615000	-0.135130
	4.620000	-0.064216
	4.625000	0.006697
	4.630000	-0.077110
	4.635000	-0.151247
	4.640000	-0.070663
	4.645000	-0.012643
	4.650000	-0.090003
	4.655000	-0.160917
	4.660000	-0.080333
	4.665000	-0.015866
	4.670000	-0.096450
	4.675000	-0.167364
	4.680000	-0.083557
	4.685000	-0.019089
	4.690000	-0.099673
	4.695000	-0.167364
	4.700000	-0.086780
	4.705000	-0.015866
	4.710000	-0.102897
	4.715000	-0.170587
	4.720000	-0.093227
	4.725000	-0.025536
	4.730000	-0.102897
	4.735000	-0.170587
	4.740000	-0.077110
	4.745000	-0.019089
	4.750000	-0.102897
	4.755000	-0.164141
	4.760000	-0.086780
	4.765000	-0.025536
	4.770000	-0.102897
	4.775000	-0.170587
	4.780000	-0.083557
	4.785000	-0.015866
	4.790000	-0.106120
	4.795000	-0.167364
	4.800000	-0.086780
	4.805000	-0.015866
	4.810000	-0.096450
	4.815000	-0.164141
	4.820000	-0.077110
	4.825000	-0.012643
	4.830000	-0.099673
	4.835000	-0.160917
	4.840000	-0.070663
	4.845000	-0.012643
	4.850000	-0.096450
	4.855000	-0.157694
	4.860000	-0.073886
	4.865000	-0.006196
	4.870000	-0.096450
	4.875000	-0.157694
	4.880000	-0.073886
	4.885000	-0.006196
	4.890000	-0.093227
	4.895000	-0.160917
	4.900000	-0.073886
	4.905000	-0.009419
	4.910000	-0.090003
	4.915000	-0.157694
	4.920000	-0.067440
	4.925000	-0.006196
	4.930000	-0.090003
	4.935000	-0.154470
	4.940000	-0.067440
	4.945000	-0.002973
	4.950000	-0.086780
	4.955000	-0.154470
	4.960000	-0.060993
	4.965000	-0.002973
	4.970000	-0.086780
	4.975000	-0.144800
	4.980000	-0.060993
	4.985000	0.006697
	4.990000	-0.083557
	4.995000	-0.148024
	5.000000	-0.054546
	5.005000	0.009921
	5.010000	-0.083557
	5.015000	-0.144800
	5.020000	-0.054546
	5.025000	0.009921
	5.030000	-0.083557
	5.035000	-0.141577
	5.040000	-0.054546
	5.045000	0.013144
	5.050000	-0.070663
	5.055000	-0.141577
	5.060000	-0.048100
	5.065000	0.013144
	5.070000	-0.073886
	5.075000	-0.135130
	5.080000	-0.048100
	5.085000	0.022814
	5.090000	-0.070663
	5.095000	-0.131907
	5.100000	-0.041653
	5.105000	0.019591
	5.110000	-0.070663
	5.115000	-0.128684
	5.120000	-0.041653
	5.125000	0.022814
	5.130000	-0.064216
	5.135000	-0.125460
	5.140000	-0.028759
	5.145000	0.029261
	5.150000	-0.070663
	5.155000	-0.119014
	5.160000	-0.031983
	5.165000	0.026038
	5.170000	-0.064216
	5.175000	-0.125460
	5.180000	-0.025536
	5.185000	0.032484
	5.190000	-0.064216
	5.195000	-0.125460
	5.200000	-0.028759
	5.205000	0.026038
	5.210000	-0.060993
	5.215000	-0.122237
	5.220000	-0.028759
	5.225000	0.032484
	5.230000	-0.057770
	5.235000	-0.125460
	5.240000	-0.028759
	5.245000	0.035708
	5.250000	-0.057770
	5.255000	-0.119014
	5.260000	-0.015866
	5.265000	0.035708
	5.270000	-0.054546
	5.275000	-0.115790
	5.280000	-0.015866
	5.285000	0.038931
	5.290000	-0.057770
	5.295000	-0.106120
	5.300000	-0.006196
	5.305000	0.042154
	5.310000	-0.054546
	5.315000	-0.106120
	5.320000	-0.012643
	5.325000	0.042154
	5.330000	-0.041653
	5.335000	-0.102897
	5.340000	-0.006196
	5.345000	0.051825
	5.350000	-0.044876
	5.355000	-0.102897
	5.360000	-0.009419
	5.365000	0.048601
	5.370000	-0.038430
	5.375000	-0.096450
	5.380000	-0.002973
	5.385000	0.051825
	5.390000	-0.038430
	5.395000	-0.096450
	5.400000	-0.002973
	5.405000	0.051825
	5.410000	-0.035206
	5.415000	-0.099673
	5.420000	0.003474
	5.425000	0.058271
	5.430000	-0.031983
	5.435000	-0.090003
	5.440000	0.000251
	5.445000	0.058271
	5.450000	-0.031983
	5.455000	-0.090003
	5.460000	0.003474
	5.465000	0.055048
	5.470000	-0.035206
	5.475000	-0.090003
	5.480000	0.003474
	5.485000	0.064718
	5.490000	-0.038430
	5.495000	-0.083557
	5.500000	0.009921
	5.505000	0.064718
	5.510000	-0.031983
	5.515000	-0.083557
	5.520000	0.013144
	5.525000	0.064718
	5.530000	-0.028759
	5.535000	-0.080333
	5.540000	0.013144
	5.545000	0.064718
	5.550000	-0.028759
	5.555000	-0.083557
	5.560000	0.016368
	5.565000	0.067941
	5.570000	-0.025536
	5.575000	-0.077110
	5.580000	0.019591
	5.585000	0.067941
	5.590000	-0.025536
	5.595000	-0.080333
	5.600000	0.022814
	5.605000	0.074388
	5.610000	-0.028759
	5.615000	-0.070663
	5.620000	0.019591
	5.625000	0.067941
	5.630000	-0.019089
	5.635000	-0.073886
	5.640000	0.019591
	5.645000	0.074388
	5.650000	-0.019089
	5.655000	-0.073886
	5.660000	0.026038
	5.665000	0.071165
	5.670000	-0.022313
	5.675000	-0.073886
	5.680000	0.029261
	5.685000	0.080835
	5.690000	-0.019089
	5.695000	-0.064216
	5.700000	0.029261
	5.705000	0.074388
	5.710000	-0.019089
	5.715000	-0.064216
	5.720000	0.032484
	5.725000	0.077611
	5.730000	-0.012643
	5.735000	-0.067440
	5.740000	0.032484
	5.745000	0.084058
	5.750000	-0.019089
	5.755000	-0.064216
	5.760000	0.042154
	5.765000	0.084058
	5.770000	-0.015866
	5.775000	-0.064216
	5.780000	0.035708
	5.785000	0.084058
	5.790000	-0.009419
	5.795000	-0.057770
	5.800000	0.045378
	5.805000	0.087281
	5.810000	-0.012643
	5.815000	-0.051323
	5.820000	0.038931
	5.825000	0.090505
	5.830000	-0.012643
	5.835000	-0.054546
	5.840000	0.048601
	5.845000	0.087281
	5.850000	-0.009419
	5.855000	-0.057770
	5.860000	0.048601
	5.865000	0.090505
	5.870000	-0.002973
	5.875000	-0.044876
	5.880000	0.048601
	5.885000	0.096952
	5.890000	-0.002973
	5.895000	-0.051323
	5.900000	0.051825
	5.905000	0.093728
	5.910000	-0.002973
	5.915000	-0.044876
	5.920000	0.058271
	5.925000	0.093728
	5.930000	0.000251
	5.935000	-0.048100
	5.940000	0.058271
	5.945000	0.106622
	5.950000	-0.002973
	5.955000	-0.044876
	5.960000	0.055048
	5.965000	0.100175
	5.970000	0.000251
	5.975000	-0.044876
	5.980000	0.067941
	5.985000	0.103398
	5.990000	0.006697
	5.995000	-0.035206
	6.000000	0.067941
	6.005000	0.106622
	6.010000	0.003474
	6.015000	-0.035206
	6.020000	0.064718
	6.025000	0.100175
	6.030000	0.003474
	6.035000	-0.031983
	6.040000	0.067941
	6.045000	0.109845
	6.050000	0.009921
	6.055000	-0.028759
	6.060000	0.074388
	6.065000	0.119515
	6.070000	0.013144
	6.075000	-0.025536
	6.080000	0.077611
	6.085000	0.116292
	6.090000	0.013144
	6.095000	-0.028759
	6.100000	0.080835
	6.105000	0.116292
	6.110000	0.013144
	6.115000	-0.025536
	6.120000	0.077611
	6.125000	0.116292
	6.130000	0.019591
	6.135000	-0.019089
	6.140000	0.080835
	6.145000	0.119515
	6.150000	0.022814
	6.155000	-0.019089
	6.160000	0.084058
	6.165000	0.119515
	6.170000	0.019591
	6.175000	-0.019089
	6.180000	0.080835
	6.185000	0.122738
	6.190000	0.019591
	6.195000	-0.012643
	6.200000	0.084058
	6.205000	0.125962
	6.210000	0.019591
	6.215000	-0.015866
	6.220000	0.090505
	6.225000	0.122738
	6.230000	0.022814
	6.235000	-0.015866
	6.240000	0.087281
	6.245000	0.122738
	6.250000	0.029261
	6.255000	-0.012643
	6.260000	0.087281
	6.265000	0.122738
	6.270000	0.022814
	6.275000	-0.012643
	6.280000	0.090505
	6.285000	0.129185
	6.290000	0.019591
	6.295000	-0.015866
	6.300000	0.087281
	6.305000	0.119515
	6.310000	0.013144
	6.315000	-0.015866
	6.320000	0.087281
	6.325000	0.125962
	6.330000	0.013144
	6.335000	-0.012643
	6.340000	0.087281
	6.345000	0.125962
	6.350000	0.022814
	6.355000	-0.019089
	6.360000	0.090505
	6.365000	0.125962
	6.370000	0.029261
	6.375000	-0.012643
	6.380000	0.093728
	6.385000	0.132408
	6.390000	0.026038
	6.395000	-0.006196
	6.400000	0.109845
	6.405000	0.145302
	6.410000	0.042154
	6.415000	0.016368
	6.420000	0.119515
	6.425000	0.158195
	6.430000	0.055048
	6.435000	0.032484
	6.440000	0.145302
	6.445000	0.190429
	6.450000	0.077611
	6.455000	0.061495
	6.460000	0.171089
	6.465000	0.216216
	6.470000	0.116292
	6.475000	0.100175
	6.480000	0.219439
	6.485000	0.258119
	6.490000	0.171089
	6.495000	0.151749
	6.500000	0.267790
	6.505000	0.322587
	6.510000	0.229109
	6.515000	0.219439
	6.520000	0.335480
	6.525000	0.387054
	6.530000	0.293576
	6.535000	0.290353
	6.540000	0.403171
	6.545000	0.438628
	6.550000	0.351597
	6.555000	0.335480
	6.560000	0.445074
	6.565000	0.474085
	6.570000	0.380607
	6.575000	0.361267
	6.580000	0.464414
	6.585000	0.490201
	6.590000	0.403171
	6.595000	0.377384
	6.600000	0.470861
	6.605000	0.499871
	6.610000	0.399947
	6.615000	0.367714
	6.620000	0.470861
	6.625000	0.496648
	6.630000	0.393501
	6.635000	0.374160
	6.640000	0.464414
	6.645000	0.486978
	6.650000	0.390277
	6.655000	0.367714
	6.660000	0.464414
	6.665000	0.480531
	6.670000	0.377384
	6.675000	0.358044
	6.680000	0.448298
	6.685000	0.474085
	6.690000	0.367714
	6.695000	0.348374
	6.700000	0.438628
	6.705000	0.467638
	6.710000	0.361267
	6.715000	0.335480
	6.720000	0.432181
	6.725000	0.461191
	6.730000	0.354820
	6.735000	0.329033
	6.740000	0.432181
	6.745000	0.448298
	6.750000	0.341927
	6.755000	0.322587
	6.760000	0.419287
	6.765000	0.438628
	6.770000	0.335480
	6.775000	0.319363
	6.780000	0.409617
	6.785000	0.438628
	6.790000	0.329033
	6.795000	0.306470
	6.800000	0.406394
	6.805000	0.422511
	6.810000	0.322587
	6.815000	0.303247
	6.820000	0.403171
	6.825000	0.422511
	6.830000	0.322587
	6.835000	0.290353
	6.840000	0.396724
	6.845000	0.412841
	6.850000	0.312917
	6.855000	0.293576
	6.860000	0.393501
	6.865000	0.416064
	6.870000	0.312917
	6.875000	0.293576
	6.880000	0.383830
	6.885000	0.409617
	6.890000	0.309693
	6.895000	0.287130
	6.900000	0.383830
	6.905000	0.406394
	6.910000	0.303247
	6.915000	0.287130
	6.920000	0.383830
	6.925000	0.406394
	6.930000	0.300023
	6.935000	0.283906
	6.940000	0.380607
	6.945000	0.406394
	6.950000	0.303247
	6.955000	0.283906
	6.960000	0.383830
	6.965000	0.406394
	6.970000	0.306470
	6.975000	0.290353
	6.980000	0.393501
	6.985000	0.409617
	6.990000	0.316140
	6.995000	0.293576
	7.000000	0.393501
	7.005000	0.412841
	7.010000	0.309693
	7.015000	0.293576
	7.020000	0.393501
	7.025000	0.409617
	7.030000	0.316140
	7.035000	0.296800
	7.040000	0.393501
	7.045000	0.419287
	7.050000	0.316140
	7.055000	0.303247
	7.060000	0.406394
	7.065000	0.416064
	7.070000	0.329033
	7.075000	0.316140
	7.080000	0.416064
	7.085000	0.432181
	7.090000	0.332257
	7.095000	0.325810
	7.100000	0.425734
	7.105000	0.454744
	7.110000	0.348374
	7.115000	0.341927
	7.120000	0.445074
	7.125000	0.464414
	7.130000	0.374160
	7.135000	0.364490
	7.140000	0.461191
	7.145000	0.477308
	7.150000	0.387054
	7.155000	0.380607
	7.160000	0.474085
	7.165000	0.499871
	7.170000	0.399947
	7.175000	0.393501
	7.180000	0.496648
	7.185000	0.506318
	7.190000	0.419287
	7.195000	0.406394
	7.200000	0.503095
	7.205000	0.528882
	7.210000	0.422511
	7.215000	0.409617
	7.220000	0.515988
	7.225000	0.525658
	7.230000	0.425734
	7.235000	0.406394
	7.240000	0.499871
	7.245000	0.509541
	7.250000	0.399947
	7.255000	0.377384
	7.260000	0.461191
	7.265000	0.464414
	7.270000	0.345150
	7.275000	0.325810
	7.280000	0.406394
	7.285000	0.406394
	7.290000	0.290353
	7.295000	0.267790
	7.300000	0.354820
	7.305000	0.358044
	7.310000	0.242003
	7.315000	0.225886
	7.320000	0.309693
	7.325000	0.316140
	7.330000	0.209769
	7.335000	0.187206
	7.340000	0.274236
	7.345000	0.280683
	7.350000	0.171089
	7.355000	0.164642
	7.360000	0.254896
	7.365000	0.254896
	7.370000	0.154972
	7.375000	0.138855
	7.380000	0.232333
	7.385000	0.245226
	7.390000	0.132408
	7.395000	0.113068
	7.400000	0.216216
	7.405000	0.219439
	7.410000	0.106622
	7.415000	0.100175
	7.420000	0.190429
	7.425000	0.200099
	7.430000	0.093728
	7.435000	0.080835
	7.440000	0.183982
	7.445000	0.183982
	7.450000	0.080835
	7.455000	0.067941
	7.460000	0.167865
	7.465000	0.174312
	7.470000	0.064718
	7.475000	0.058271
	7.480000	0.154972
	7.485000	0.164642
	7.490000	0.058271
	7.495000	0.045378
	7.500000	0.151749
	7.505000	0.154972
	7.510000	0.038931
	7.515000	0.032484
	7.520000	0.135632
	7.525000	0.142079
	7.530000	0.026038
	7.535000	0.022814
	7.540000	0.119515
	7.545000	0.132408
	7.550000	0.019591
	7.555000	0.006697
	7.560000	0.116292
	7.565000	0.113068
	7.570000	0.013144
	7.575000	-0.006196
	7.580000	0.109845
	7.585000	0.109845
	7.590000	-0.006196
	7.595000	-0.009419
	7.600000	0.100175
	7.605000	0.100175
	7.610000	-0.006196
	7.615000	-0.006196
	7.620000	0.096952
	7.625000	0.096952
	7.630000	-0.006196
	7.635000	-0.009419
	7.640000	0.093728
	7.645000	0.103398
	7.650000	-0.009419
	7.655000	-0.015866
	7.660000	0.096952
	7.665000	0.103398
	7.670000	-0.009419
	7.675000	-0.015866
	7.680000	0.093728
	7.685000	0.090505
	7.690000	-0.015866
	7.695000	-0.022313
	7.700000	0.090505
	7.705000	0.093728
	7.710000	-0.019089
	7.715000	-0.022313
	7.720000	0.090505
	7.725000	0.090505
	7.730000	-0.019089
	7.735000	-0.019089
	7.740000	0.084058
	7.745000	0.087281
	7.750000	-0.019089
	7.755000	-0.019089
	7.760000	0.087281
	7.765000	0.093728
	7.770000	-0.015866
	7.775000	-0.019089
	7.780000	0.087281
	7.785000	0.093728
	7.790000	-0.028759
	7.795000	-0.019089
	7.800000	0.096952
	7.805000	0.090505
	7.810000	-0.019089
	7.815000	-0.012643
	7.820000	0.090505
	7.825000	0.100175
	7.830000	-0.019089
	7.835000	-0.019089
	7.840000	0.093728
	7.845000	0.096952
	7.850000	-0.022313
	7.855000	-0.015866
	7.860000	0.090505
	7.865000	0.093728
	7.870000	-0.019089
	7.875000	-0.015866
	7.880000	0.096952
	7.885000	0.096952
	7.890000	-0.012643
	7.895000	-0.006196
	7.900000	0.103398
	7.905000	0.103398
	7.910000	-0.006196
	7.915000	-0.006196
	7.920000	0.103398
	7.925000	0.103398
	7.930000	-0.006196
	7.935000	-0.006196
	7.940000	0.109845
	7.945000	0.103398
	7.950000	-0.002973
	7.955000	-0.009419
	7.960000	0.106622
	7.965000	0.103398
	7.970000	-0.009419
	7.975000	0.000251
	7.980000	0.109845
	7.985000	0.109845
	7.990000	-0.002973
	7.995000	0.000251
	8.000000	0.113068
	8.005000	0.106622
	8.010000	0.000251
	8.015000	0.000251
	8.020000	0.119515
	8.025000	0.116292
	8.030000	0.000251
	8.035000	0.013144
	8.040000	0.116292
	8.045000	0.113068
	8.050000	0.003474
	8.055000	0.013144
	8.060000	0.122738
	8.065000	0.116292
	8.070000	0.006697
	8.075000	0.013144
	8.080000	0.122738
	8.085000	0.122738
	8.090000	0.009921
	8.095000	0.019591
	8.100000	0.129185
	8.105000	0.122738
	8.110000	0.019591
	8.115000	0.019591
	8.120000	0.129185
	8.125000	0.119515
	8.130000	0.013144
	8.135000	0.026038
	8.140000	0.132408
	8.145000	0.125962
	8.150000	0.019591
	8.155000	0.032484
	8.160000	0.138855
	8.165000	0.129185
	8.170000	0.016368
	8.175000	0.032484
	8.180000	0.142079
	8.185000	0.135632
	8.190000	0.016368
	8.195000	0.032484
	8.200000	0.142079
	8.205000	0.138855
	8.210000	0.019591
	8.215000	0.032484
	8.220000	0.142079
	8.225000	0.129185
	8.230000	0.026038
	8.235000	0.029261
	8.240000	0.148525
	8.245000	0.135632
	8.250000	0.026038
	8.255000	0.038931
	8.260000	0.145302
	8.265000	0.132408
	8.270000	0.022814
	8.275000	0.035708
	8.280000	0.145302
	8.285000	0.135632
	8.290000	0.029261
	8.295000	0.038931
	8.300000	0.148525
	8.305000	0.135632
	8.310000	0.026038
	8.315000	0.035708
	8.320000	0.145302
	8.325000	0.138855
	8.330000	0.026038
	8.335000	0.035708
	8.340000	0.151749
	8.345000	0.142079
	8.350000	0.026038
	8.355000	0.042154
	8.360000	0.154972
	8.365000	0.138855
	8.370000	0.029261
	8.375000	0.038931
	8.380000	0.158195
	8.385000	0.138855
	8.390000	0.032484
	8.395000	0.051825
	8.400000	0.161419
	8.405000	0.145302
	8.410000	0.035708
	8.415000	0.042154
	8.420000	0.154972
	8.425000	0.142079
	8.430000	0.035708
	8.435000	0.055048
	8.440000	0.161419
	8.445000	0.145302
	8.450000	0.035708
	8.455000	0.048601
	8.460000	0.154972
	8.465000	0.142079
	8.470000	0.042154
	8.475000	0.055048
	8.480000	0.161419
	8.485000	0.142079
	8.490000	0.029261
	8.495000	0.055048
	8.500000	0.161419
	8.505000	0.148525
	8.510000	0.038931
	8.515000	0.051825
	8.520000	0.158195
	8.525000	0.154972
	8.530000	0.038931
	8.535000	0.055048
	8.540000	0.164642
	8.545000	0.148525
	8.550000	0.032484
	8.555000	0.058271
	8.560000	0.164642
	8.565000	0.148525
	8.570000	0.035708
	8.575000	0.051825
	8.580000	0.161419
	8.585000	0.151749
	8.590000	0.038931
	8.595000	0.058271
	8.600000	0.171089
	8.605000	0.148525
	8.610000	0.042154
	8.615000	0.058271
	8.620000	0.164642
	8.625000	0.151749
	8.630000	0.038931
	8.635000	0.064718
	8.640000	0.171089
	8.645000	0.151749
	8.650000	0.042154
	8.655000	0.058271
	8.660000	0.167865
	8.665000	0.148525
	8.670000	0.045378
	8.675000	0.061495
	8.680000	0.171089
	8.685000	0.151749
	8.690000	0.042154
	8.695000	0.058271
	8.700000	0.174312
	8.705000	0.151749
	8.710000	0.042154
	8.715000	0.064718
	8.720000	0.171089
	8.725000	0.145302
	8.730000	0.045378
	8.735000	0.061495
	8.740000	0.174312
	8.745000	0.151749
	8.750000	0.042154
	8.755000	0.071165
	8.760000	0.177536
	8.765000	0.158195
	8.770000	0.048601
	8.775000	0.071165
	8.780000	0.180759
	8.785000	0.148525
	8.790000	0.048601
	8.795000	0.071165
	8.800000	0.180759
	8.805000	0.154972
	8.810000	0.045378
	8.815000	0.074388
	8.820000	0.183982
	8.825000	0.161419
	8.830000	0.055048
	8.835000	0.071165
	8.840000	0.180759
	8.845000	0.158195
	8.850000	0.048601
	8.855000	0.077611
	8.860000	0.183982
	8.865000	0.154972
	8.870000	0.048601
	8.875000	0.080835
	8.880000	0.180759
	8.885000	0.161419
	8.890000	0.055048
	8.895000	0.077611
	8.900000	0.183982
	8.905000	0.161419
	8.910000	0.051825
	8.915000	0.077611
	8.920000	0.183982
	8.925000	0.164642
	8.930000	0.058271
	8.935000	0.074388
	8.940000	0.190429
	8.945000	0.164642
	8.950000	0.055048
	8.955000	0.080835
	8.960000	0.196876
	8.965000	0.167865
	8.970000	0.051825
	8.975000	0.084058
	8.980000	0.190429
	8.985000	0.167865
	8.990000	0.055048
	8.995000	0.077611
	9.000000	0.187206
	9.005000	0.164642
	9.010000	0.055048
	9.015000	0.087281
	9.020000	0.193652
	9.025000	0.164642
	9.030000	0.058271
	9.035000	0.084058
	9.040000	0.190429
	9.045000	0.164642
	9.050000	0.058271
	9.055000	0.084058
	9.060000	0.183982
	9.065000	0.158195
	9.070000	0.055048
	9.075000	0.080835
	9.080000	0.183982
	9.085000	0.161419
	9.090000	0.051825
	9.095000	0.084058
	9.100000	0.193652
	9.105000	0.164642
	9.110000	0.048601
	9.115000	0.090505
	9.120000	0.203322
	9.125000	0.164642
	9.130000	0.064718
	9.135000	0.093728
	9.140000	0.206546
	9.145000	0.177536
	9.150000	0.077611
	9.155000	0.113068
	9.160000	0.219439
	9.165000	0.193652
	9.170000	0.084058
	9.175000	0.119515
	9.180000	0.225886
	9.185000	0.212992
	9.190000	0.096952
	9.195000	0.135632
	9.200000	0.245226
	9.205000	0.216216
	9.210000	0.113068
	9.215000	0.142079
	9.220000	0.248449
	9.225000	0.219439
	9.230000	0.119515
	9.235000	0.154972
	9.240000	0.264566
	9.245000	0.238779
	9.250000	0.132408
	9.255000	0.161419
	9.260000	0.271013
	9.265000	0.245226
	9.270000	0.142079
	9.275000	0.180759
	9.280000	0.287130
	9.285000	0.254896
	9.290000	0.161419
	9.295000	0.190429
	9.300000	0.290353
	9.305000	0.271013
	9.310000	0.167865
	9.315000	0.209769
	9.320000	0.316140
	9.325000	0.287130
	9.330000	0.183982
	9.335000	0.222663
	9.340000	0.332257
	9.345000	0.296800
	9.350000	0.203322
	9.355000	0.235556
	9.360000	0.338703
	9.365000	0.312917
	9.370000	0.212992
	9.375000	0.258119
	9.380000	0.361267
	9.385000	0.332257
	9.390000	0.229109
	9.395000	0.264566
	9.400000	0.367714
	9.405000	0.341927
	9.410000	0.248449
	9.415000	0.287130
	9.420000	0.393501
	9.425000	0.354820
	9.430000	0.254896
	9.435000	0.293576
	9.440000	0.393501
	9.445000	0.367714
	9.450000	0.271013
	9.455000	0.303247
	9.460000	0.409617
	9.465000	0.374160
	9.470000	0.277460
	9.475000	0.322587
	9.480000	0.419287
	9.485000	0.393501
	9.490000	0.293576
	9.495000	0.335480
	9.500000	0.428957
	9.505000	0.399947
	9.510000	0.306470
	9.515000	0.341927
	9.520000	0.445074
	9.525000	0.416064
	9.530000	0.309693
	9.535000	0.351597
	9.540000	0.448298
	9.545000	0.416064
	9.550000	0.319363
	9.555000	0.348374
	9.560000	0.445074
	9.565000	0.409617
	9.570000	0.306470
	9.575000	0.341927
	9.580000	0.441851
	9.585000	0.406394
	9.590000	0.306470
	9.595000	0.345150
	9.600000	0.432181
	9.605000	0.399947
	9.610000	0.303247
	9.615000	0.332257
	9.620000	0.428957
	9.625000	0.393501
	9.630000	0.293576
	9.635000	0.332257
	9.640000	0.419287
	9.645000	0.383830
	9.650000	0.287130
	9.655000	0.319363
	9.660000	0.416064
	9.665000	0.374160
	9.670000	0.277460
	9.675000	0.322587
	9.680000	0.412841
	9.685000	0.374160
	9.690000	0.280683
	9.695000	0.322587
	9.700000	0.409617
	9.705000	0.377384
	9.710000	0.277460
	9.715000	0.312917
	9.720000	0.416064
	9.725000	0.370937
	9.730000	0.271013
	9.735000	0.312917
	9.740000	0.409617
	9.745000	0.370937
	9.750000	0.271013
	9.755000	0.309693
	9.760000	0.403171
	9.765000	0.364490
	9.770000	0.271013
	9.775000	0.306470
	9.780000	0.406394
	9.785000	0.364490
	9.790000	0.264566
	9.795000	0.309693
	9.800000	0.406394
	9.805000	0.370937
	9.810000	0.267790
	9.815000	0.303247
	9.820000	0.399947
	9.825000	0.354820
	9.830000	0.258119
	9.835000	0.296800
	9.840000	0.393501
	9.845000	0.348374
	9.850000	0.258119
	9.855000	0.293576
	9.860000	0.387054
	9.865000	0.351597
	9.870000	0.251673
	9.875000	0.290353
	9.880000	0.383830
	9.885000	0.348374
	9.890000	0.248449
	9.895000	0.290353
	9.900000	0.374160
	9.905000	0.332257
	9.910000	0.235556
	9.915000	0.280683
	9.920000	0.377384
	9.925000	0.329033
	9.930000	0.232333
	9.935000	0.277460
	9.940000	0.370937
	9.945000	0.322587
	9.950000	0.229109
	9.955000	0.271013
	9.960000	0.354820
	9.965000	0.316140
	9.970000	0.222663
	9.975000	0.254896
	9.980000	0.354820
	9.985000	0.303247
	9.990000	0.206546
	9.995000	0.251673
	10.000000	0.338703
	10.005000	0.290353
	10.010000	0.196876
	10.015000	0.232333
	10.020000	0.325810
	10.025000	0.277460
	10.030000	0.171089
	10.035000	0.216216
	10.040000	0.306470
	10.045000	0.254896
	10.050000	0.161419
	10.055000	0.200099
	10.060000	0.296800
	10.065000	0.242003
	10.070000	0.142079
	10.075000	0.187206
	10.080000	0.277460
	10.085000	0.225886
	10.090000	0.129185
	10.095000	0.174312
	10.100000	0.264566
	10.105000	0.219439
	10.110000	0.113068
	10.115000	0.161419
	10.120000	0.258119
	10.125000	0.206546
	10.130000	0.113068
	10.135000	0.158195
	10.140000	0.258119
	10.145000	0.203322
	10.150000	0.113068
	10.155000	0.158195
	10.160000	0.251673
	10.165000	0.203322
	10.170000	0.106622
	10.175000	0.161419
	10.180000	0.248449
	10.185000	0.206546
	10.190000	0.109845
	10.195000	0.164642
	10.200000	0.254896
	10.205000	0.200099
	10.210000	0.106622
	10.215000	0.167865
	10.220000	0.254896
	10.225000	0.206546
	10.230000	0.109845
	10.235000	0.161419
	10.240000	0.248449
	10.245000	0.200099
	10.250000	0.103398
	10.255000	0.154972
	10.260000	0.242003
	10.265000	0.193652
	10.270000	0.096952
	10.275000	0.148525
	10.280000	0.238779
	10.285000	0.187206
	10.290000	0.090505
	10.295000	0.138855
	10.300000	0.235556
	10.305000	0.177536
	10.310000	0.084058
	10.315000	0.129185
	10.320000	0.225886
	10.325000	0.167865
	10.330000	0.074388
	10.335000	0.122738
	10.340000	0.219439
	10.345000	0.161419
	10.350000	0.064718
	10.355000	0.119515
	10.360000	0.206546
	10.365000	0.154972
	10.370000	0.058271
	10.375000	0.113068
	10.380000	0.203322
	10.385000	0.145302
	10.390000	0.055048
	10.395000	0.106622
	10.400000	0.196876
	10.405000	0.138855
	10.410000	0.045378
	10.415000	0.100175
	10.420000	0.190429
	10.425000	0.135632
	10.430000	0.048601
	10.435000	0.100175
	10.440000	0.183982
	10.445000	0.129185
	10.450000	0.045378
	10.455000	0.093728
	10.460000	0.183982
	10.465000	0.125962
	10.470000	0.032484
	10.475000	0.090505
	10.480000	0.180759
	10.485000	0.122738
	10.490000	0.029261
	10.495000	0.087281
	10.500000	0.180759
	10.505000	0.125962
	10.510000	0.029261
	10.515000	0.087281
	10.520000	0.180759
	10.525000	0.125962
	10.530000	0.026038
	10.535000	0.087281
	10.540000	0.174312
	10.545000	0.119515
	10.550000	0.032484
	10.555000	0.084058
	10.560000	0.180759
	10.565000	0.122738
	10.570000	0.029261
	10.575000	0.087281
	10.580000	0.180759
	10.585000	0.113068
	10.590000	0.026038
	10.595000	0.087281
	10.600000	0.177536
	10.605000	0.122738
	10.610000	0.029261
	10.615000	0.090505
	10.620000	0.180759
	10.625000	0.116292
	10.630000	0.022814
	10.635000	0.090505
	10.640000	0.180759
	10.645000	0.119515
	10.650000	0.035708
	10.655000	0.093728
	10.660000	0.180759
	10.665000	0.122738
	10.670000	0.026038
	10.675000	0.090505
	10.680000	0.180759
	10.685000	0.122738
	10.690000	0.026038
	10.695000	0.093728
	10.700000	0.180759
	10.705000	0.122738
	10.710000	0.032484
	10.715000	0.096952
	10.720000	0.183982
	10.725000	0.125962
	10.730000	0.035708
	10.735000	0.100175
	10.740000	0.187206
	10.745000	0.129185
	10.750000	0.032484
	10.755000	0.103398
	10.760000	0.190429
	10.765000	0.125962
	10.770000	0.032484
	10.775000	0.100175
	10.780000	0.190429
	10.785000	0.125962
	10.790000	0.038931
	10.795000	0.106622
	10.800000	0.200099
	10.805000	0.132408
	10.810000	0.045378
	10.815000	0.106622
	10.820000	0.200099
	10.825000	0.135632
	10.830000	0.038931
	10.835000	0.103398
	10.840000	0.196876
	10.845000	0.132408
	10.850000	0.045378
	10.855000	0.103398
	10.860000	0.200099
	10.865000	0.132408
	10.870000	0.048601
	10.875000	0.106622
	10.880000	0.203322
	10.885000	0.129185
	10.890000	0.045378
	10.895000	0.116292
	10.900000	0.203322
	10.905000	0.138855
	10.910000	0.055048
	10.915000	0.116292
	10.920000	0.203322
	10.925000	0.138855
	10.930000	0.051825
	10.935000	0.119515
	10.940000	0.206546
	10.945000	0.138855
	10.950000	0.055048
	10.955000	0.119515
	10.960000	0.209769
	10.965000	0.145302
	10.970000	0.051825
	10.975000	0.122738
	10.980000	0.212992
	10.985000	0.148525
	10.990000	0.058271
	10.995000	0.119515
	11.000000	0.216216
	11.005000	0.145302
	11.010000	0.058271
	11.015000	0.129185
	11.020000	0.212992
	11.025000	0.145302
	11.030000	0.061495
	11.035000	0.125962
	11.040000	0.216216
	11.045000	0.148525
	11.050000	0.061495
	11.055000	0.132408
	11.060000	0.212992
	11.065000	0.145302
	11.070000	0.064718
	11.075000	0.125962
	11.080000	0.212992
	11.085000	0.148525
	11.090000	0.061495
	11.095000	0.129185
	11.100000	0.212992
	11.105000	0.151749
	11.110000	0.064718
	11.115000	0.129185
	11.120000	0.219439
	11.125000	0.148525
	11.130000	0.064718
	11.135000	0.135632
	11.140000	0.219439
	11.145000	0.145302
	11.150000	0.055048
	11.155000	0.132408
	11.160000	0.216216
	11.165000	0.145302
	11.170000	0.064718
	11.175000	0.132408
	11.180000	0.219439
	11.185000	0.142079
	11.190000	0.064718
	11.195000	0.132408
	11.200000	0.216216
	11.205000	0.148525
	11.210000	0.064718
	11.215000	0.138855
	11.220000	0.222663
	11.225000	0.151749
	11.230000	0.067941
	11.235000	0.132408
	11.240000	0.212992
	11.245000	0.148525
	11.250000	0.064718
	11.255000	0.135632
	11.260000	0.219439
	11.265000	0.145302
	11.270000	0.061495
	11.275000	0.135632
	11.280000	0.216216
	11.285000	0.145302
	11.290000	0.058271
	11.295000	0.132408
	11.300000	0.219439
	11.305000	0.148525
	11.310000	0.064718
	11.315000	0.132408
	11.320000	0.225886
	11.325000	0.151749
	11.330000	0.067941
	11.335000	0.135632
	11.340000	0.216216
	11.345000	0.148525
	11.350000	0.071165
	11.355000	0.138855
	11.360000	0.222663
	11.365000	0.145302
	11.370000	0.067941
	11.375000	0.138855
	11.380000	0.225886
	11.385000	0.145302
	11.390000	0.071165
	11.395000	0.138855
	11.400000	0.219439
	11.405000	0.151749
	11.410000	0.064718
	11.415000	0.135632
	11.420000	0.225886
	11.425000	0.151749
	11.430000	0.067941
	11.435000	0.142079
	11.440000	0.225886
	11.445000	0.151749
	11.450000	0.061495
	11.455000	0.142079
	11.460000	0.222663
	11.465000	0.154972
	11.470000	0.064718
	11.475000	0.145302
	11.480000	0.225886
	11.485000	0.154972
	11.490000	0.074388
	11.495000	0.145302
	11.500000	0.229109
	11.505000	0.154972
	11.510000	0.067941
	11.515000	0.142079
	11.520000	0.229109
	11.525000	0.151749
	11.530000	0.071165
	11.535000	0.145302
	11.540000	0.229109
	11.545000	0.154972
	11.550000	0.071165
	11.555000	0.148525
	11.560000	0.225886
	11.565000	0.154972
	11.570000	0.074388
	11.575000	0.151749
	11.580000	0.238779
	11.585000	0.151749
	11.590000	0.074388
	11.595000	0.151749
	11.600000	0.229109
	11.605000	0.154972
	11.610000	0.074388
	11.615000	0.154972
	11.620000	0.232333
	11.625000	0.151749
	11.630000	0.074388
	11.635000	0.154972
	11.640000	0.229109
	11.645000	0.154972
	11.650000	0.074388
	11.655000	0.151749
	11.660000	0.232333
	11.665000	0.151749
	11.670000	0.080835
	11.675000	0.154972
	11.680000	0.232333
	11.685000	0.158195
	11.690000	0.077611
	11.695000	0.161419
	11.700000	0.238779
	11.705000	0.158195
	11.710000	0.080835
	11.715000	0.167865
	11.720000	0.238779
	11.725000	0.161419
	11.730000	0.084058
	11.735000	0.161419
	11.740000	0.245226
	11.745000	0.164642
	11.750000	0.087281
	11.755000	0.167865
	11.760000	0.238779
	11.765000	0.154972
	11.770000	0.077611
	11.775000	0.158195
	11.780000	0.242003
	11.785000	0.164642
	11.790000	0.080835
	11.795000	0.161419
	11.800000	0.242003
	11.805000	0.158195
	11.810000	0.090505
	11.815000	0.167865
	11.820000	0.242003
	11.825000	0.161419
	11.830000	0.087281
	11.835000	0.171089
	11.840000	0.245226
	11.845000	0.158195
	11.850000	0.087281
	11.855000	0.171089
	11.860000	0.245226
	11.865000	0.161419
	11.870000	0.090505
	11.875000	0.177536
	11.880000	0.242003
	11.885000	0.164642
	11.890000	0.087281
	11.895000	0.177536
	11.900000	0.251673
	11.905000	0.167865
	11.910000	0.093728
	11.915000	0.177536
	11.920000	0.248449
	11.925000	0.167865
	11.930000	0.096952
	11.935000	0.177536
	11.940000	0.251673
	11.945000	0.164642
	11.950000	0.093728
	11.955000	0.174312
	11.960000	0.251673
	11.965000	0.164642
	11.970000	0.096952
	11.975000	0.180759
	11.980000	0.251673
	11.985000	0.164642
	11.990000	0.096952
	11.995000	0.183982
	12.000000	0.251673
	12.005000	0.174312
	12.010000	0.103398
	12.015000	0.180759
	12.020000	0.254896
	12.025000	0.171089
	12.030000	0.096952
	12.035000	0.180759
	12.040000	0.248449
	12.045000	0.171089
	12.050000	0.100175
	12.055000	0.180759
	12.060000	0.251673
	12.065000	0.167865
	12.070000	0.103398
	12.075000	0.187206
	12.080000	0.254896
	12.085000	0.171089
	12.090000	0.096952
	12.095000	0.180759
	12.100000	0.254896
	12.105000	0.167865
	12.110000	0.100175
	12.115000	0.190429
	12.120000	0.258119
	12.125000	0.171089
	12.130000	0.096952
	12.135000	0.187206
	12.140000	0.248449
	12.145000	0.171089
	12.150000	0.100175
	12.155000	0.187206
	12.160000	0.254896
	12.165000	0.177536
	12.170000	0.103398
	12.175000	0.180759
	12.180000	0.254896
	12.185000	0.167865
	12.190000	0.100175
	12.195000	0.193652
	12.200000	0.258119
	12.205000	0.171089
	12.210000	0.103398
	12.215000	0.190429
	12.220000	0.254896
	12.225000	0.174312
	12.230000	0.106622
	12.235000	0.187206
	12.240000	0.258119
	12.245000	0.167865
	12.250000	0.106622
	12.255000	0.193652
	12.260000	0.258119
	12.265000	0.171089
	12.270000	0.100175
	12.275000	0.187206
	12.280000	0.261343
	12.285000	0.167865
	12.290000	0.103398
	12.295000	0.190429
	12.300000	0.261343
	12.305000	0.177536
	12.310000	0.106622
	12.315000	0.187206
	12.320000	0.261343
	12.325000	0.164642
	12.330000	0.106622
	12.335000	0.193652
	12.340000	0.254896
	12.345000	0.171089
	12.350000	0.103398
	12.355000	0.196876
	12.360000	0.254896
	12.365000	0.167865
	12.370000	0.106622
	12.375000	0.193652
	12.380000	0.254896
	12.385000	0.171089
	12.390000	0.103398
	12.395000	0.193652
	12.400000	0.258119
	12.405000	0.167865
	12.410000	0.100175
	12.415000	0.187206
	12.420000	0.258119
	12.425000	0.164642
	12.430000	0.103398
	12.435000	0.196876
	12.440000	0.254896
	12.445000	0.167865
	12.450000	0.109845
	12.455000	0.193652
	12.460000	0.254896
	12.465000	0.167865
	12.470000	0.100175
	12.475000	0.196876
	12.480000	0.261343
	12.485000	0.171089
	12.490000	0.109845
	12.495000	0.193652
	12.500000	0.254896
	12.505000	0.177536
	12.510000	0.106622
	12.515000	0.203322
	12.520000	0.261343
	12.525000	0.174312
	12.530000	0.103398
	12.535000	0.200099
	12.540000	0.258119
	12.545000	0.167865
	12.550000	0.103398
	12.555000	0.196876
	12.560000	0.261343
	12.565000	0.171089
	12.570000	0.106622
	12.575000	0.196876
	12.580000	0.261343
	12.585000	0.171089
	12.590000	0.103398
	12.595000	0.203322
	12.600000	0.261343
	12.605000	0.167865
	12.610000	0.106622
	12.615000	0.200099
	12.620000	0.254896
	12.625000	0.164642
	12.630000	0.106622
	12.635000	0.190429
	12.640000	0.258119
	12.645000	0.167865
	12.650000	0.106622
	12.655000	0.200099
	12.660000	0.258119
	12.665000	0.164642
	12.670000	0.109845
	12.675000	0.200099
	12.680000	0.261343
	12.685000	0.171089
	12.690000	0.109845
	12.695000	0.209769
	12.700000	0.264566
	12.705000	0.174312
	12.710000	0.116292
	12.715000	0.209769
	12.720000	0.274236
	12.725000	0.187206
	12.730000	0.122738
	12.735000	0.229109
	12.740000	0.290353
	12.745000	0.190429
	12.750000	0.135632
	12.755000	0.235556
	12.760000	0.303247
	12.765000	0.206546
	12.770000	0.161419
	12.775000	0.258119
	12.780000	0.319363
	12.785000	0.232333
	12.790000	0.180759
	12.795000	0.277460
	12.800000	0.348374
	12.805000	0.267790
	12.810000	0.222663
	12.815000	0.319363
	12.820000	0.377384
	12.825000	0.303247
	12.830000	0.258119
	12.835000	0.354820
	12.840000	0.422511
	12.845000	0.345150
	12.850000	0.303247
	12.855000	0.399947
	12.860000	0.470861
	12.865000	0.399947
	12.870000	0.354820
	12.875000	0.457968
	12.880000	0.522435
	12.885000	0.441851
	12.890000	0.399947
	12.895000	0.486978
	12.900000	0.548222
	12.905000	0.461191
	12.910000	0.412841
	12.915000	0.499871
	12.920000	0.554668
	12.925000	0.464414
	12.930000	0.406394
	12.935000	0.486978
	12.940000	0.541775
	12.945000	0.454744
	12.950000	0.399947
	12.955000	0.480531
	12.960000	0.535328
	12.965000	0.438628
	12.970000	0.387054
	12.975000	0.477308
	12.980000	0.528882
	12.985000	0.428957
	12.990000	0.383830
	12.995000	0.470861
	13.000000	0.519212
	13.005000	0.432181
	13.010000	0.377384
	13.015000	0.464414
	13.020000	0.509541
	13.025000	0.419287
	13.030000	0.367714
	13.035000	0.461191
	13.040000	0.509541
	13.045000	0.412841
	13.050000	0.367714
	13.055000	0.448298
	13.060000	0.503095
	13.065000	0.412841
	13.070000	0.361267
	13.075000	0.451521
	13.080000	0.493425
	13.085000	0.403171
	13.090000	0.351597
	13.095000	0.448298
	13.100000	0.490201
	13.105000	0.399947
	13.110000	0.348374
	13.115000	0.432181
	13.120000	0.480531
	13.125000	0.390277
	13.130000	0.341927
	13.135000	0.428957
	13.140000	0.477308
	13.145000	0.383830
	13.150000	0.329033
	13.155000	0.419287
	13.160000	0.464414
	13.165000	0.374160
	13.170000	0.338703
	13.175000	0.419287
	13.180000	0.464414
	13.185000	0.370937
	13.190000	0.325810
	13.195000	0.416064
	13.200000	0.461191
	13.205000	0.367714
	13.210000	0.325810
	13.215000	0.412841
	13.220000	0.464414
	13.225000	0.374160
	13.230000	0.316140
	13.235000	0.412841
	13.240000	0.461191
	13.245000	0.367714
	13.250000	0.325810
	13.255000	0.419287
	13.260000	0.461191
	13.265000	0.367714
	13.270000	0.325810
	13.275000	0.412841
	13.280000	0.464414
	13.285000	0.370937
	13.290000	0.325810
	13.295000	0.422511
	13.300000	0.467638
	13.305000	0.380607
	13.310000	0.335480
	13.315000	0.425734
	13.320000	0.467638
	13.325000	0.383830
	13.330000	0.341927
	13.335000	0.432181
	13.340000	0.483755
	13.345000	0.393501
	13.350000	0.354820
	13.355000	0.448298
	13.360000	0.490201
	13.365000	0.399947
	13.370000	0.361267
	13.375000	0.454744
	13.380000	0.499871
	13.385000	0.409617
	13.390000	0.361267
	13.395000	0.454744
	13.400000	0.493425
	13.405000	0.403171
	13.410000	0.361267
	13.415000	0.454744
	13.420000	0.499871
	13.425000	0.396724
	13.430000	0.358044
	13.435000	0.445074
	13.440000	0.486978
	13.445000	0.387054
	13.450000	0.341927
	13.455000	0.432181
	13.460000	0.474085
	13.465000	0.380607
	13.470000	0.332257
	13.475000	0.419287
	13.480000	0.461191
	13.485000	0.361267
	13.490000	0.319363
	13.495000	0.406394
	13.500000	0.445074
	13.505000	0.348374
	13.510000	0.300023
	13.515000	0.390277
	13.520000	0.419287
	13.525000	0.319363
	13.530000	0.280683
	13.535000	0.361267
	13.540000	0.399947
	13.545000	0.293576
	13.550000	0.248449
	13.555000	0.341927
	13.560000	0.367714
	13.565000	0.274236
	13.570000	0.219439
	13.575000	0.312917
	13.580000	0.345150
	13.585000	0.242003
	13.590000	0.193652
	13.595000	0.290353
	13.600000	0.312917
	13.605000	0.219439
	13.610000	0.171089
	13.615000	0.261343
	13.620000	0.300023
	13.625000	0.206546
	13.630000	0.151749
	13.635000	0.248449
	13.640000	0.280683
	13.645000	0.180759
	13.650000	0.135632
	13.655000	0.229109
	13.660000	0.267790
	13.665000	0.154972
	13.670000	0.116292
	13.675000	0.209769
	13.680000	0.242003
	13.685000	0.142079
	13.690000	0.093728
	13.695000	0.196876
	13.700000	0.229109
	13.705000	0.129185
	13.710000	0.090505
	13.715000	0.183982
	13.720000	0.222663
	13.725000	0.119515
	13.730000	0.084058
	13.735000	0.183982
	13.740000	0.216216
	13.745000	0.109845
	13.750000	0.074388
	13.755000	0.171089
	13.760000	0.209769
	13.765000	0.106622
	13.770000	0.074388
	13.775000	0.171089
	13.780000	0.209769
	13.785000	0.103398
	13.790000	0.074388
	13.795000	0.167865
	13.800000	0.206546
	13.805000	0.100175
	13.810000	0.064718
	13.815000	0.171089
	13.820000	0.203322
	13.825000	0.103398
	13.830000	0.064718
	13.835000	0.174312
	13.840000	0.203322
	13.845000	0.096952
	13.850000	0.064718
	13.855000	0.171089
	13.860000	0.200099
	13.865000	0.100175
	13.870000	0.067941
	13.875000	0.164642
	13.880000	0.203322
	13.885000	0.093728
	13.890000	0.061495
	13.895000	0.171089
	13.900000	0.203322
	13.905000	0.096952
	13.910000	0.067941
	13.915000	0.167865
	13.920000	0.203322
	13.925000	0.100175
	13.930000	0.067941
	13.935000	0.167865
	13.940000	0.203322
	13.945000	0.100175
	13.950000	0.061495
	13.955000	0.164642
	13.960000	0.206546
	13.965000	0.100175
	13.970000	0.067941
	13.975000	0.177536
	13.980000	0.200099
	13.985000	0.096952
	13.990000	0.067941
	13.995000	0.171089
	14.000000	0.206546
	14.005000	0.103398
	14.010000	0.064718
	14.015000	0.171089
	14.020000	0.212992
	14.025000	0.100175
	14.030000	0.080835
	14.035000	0.183982
	14.040000	0.212992
	14.045000	0.106622
	14.050000	0.077611
	14.055000	0.180759
	14.060000	0.216216
	14.065000	0.103398
	14.070000	0.080835
	14.075000	0.187206
	14.080000	0.216216
	14.085000	0.106622
	14.090000	0.080835
	14.095000	0.183982
	14.100000	0.212992
	14.105000	0.113068
	14.110000	0.080835
	14.115000	0.183982
	14.120000	0.216216
	14.125000	0.109845
	14.130000	0.087281
	14.135000	0.196876
	14.140000	0.216216
	14.145000	0.113068
	14.150000	0.080835
	14.155000	0.183982
	14.160000	0.222663
	14.165000	0.113068
	14.170000	0.087281
	14.175000	0.193652
	14.180000	0.222663
	14.185000	0.106622
	14.190000	0.084058
	14.195000	0.193652
	14.200000	0.225886
	14.205000	0.113068
	14.210000	0.087281
	14.215000	0.196876
	14.220000	0.229109
	14.225000	0.113068
	14.230000	0.087281
	14.235000	0.200099
	14.240000	0.222663
	14.245000	0.113068
	14.250000	0.093728
	14.255000	0.196876
	14.260000	0.225886
	14.265000	0.119515
	14.270000	0.090505
	14.275000	0.200099
	14.280000	0.235556
	14.285000	0.122738
	14.290000	0.093728
	14.295000	0.203322
	14.300000	0.225886
	14.305000	0.119515
	14.310000	0.090505
	14.315000	0.203322
	14.320000	0.232333
	14.325000	0.122738
	14.330000	0.093728
	14.335000	0.203322
	14.340000	0.235556
	14.345000	0.116292
	14.350000	0.096952
	14.355000	0.200099
	14.360000	0.229109
	14.365000	0.122738
	14.370000	0.096952
	14.375000	0.203322
	14.380000	0.229109
	14.385000	0.119515
	14.390000	0.096952
	14.395000	0.209769
	14.400000	0.229109
	14.405000	0.116292
	14.410000	0.096952
	14.415000	0.206546
	14.420000	0.229109
	14.425000	0.116292
	14.430000	0.096952
	14.435000	0.206546
	14.440000	0.229109
	14.445000	0.116292
	14.450000	0.096952
	14.455000	0.206546
	14.460000	0.229109
	14.465000	0.122738
	14.470000	0.093728
	14.475000	0.203322
	14.480000	0.229109
	14.485000	0.116292
	14.490000	0.103398
	14.495000	0.200099
	14.500000	0.232333
	14.505000	0.119515
	14.510000	0.096952
	14.515000	0.212992
	14.520000	0.232333
	14.525000	0.119515
	14.530000	0.103398
	14.535000	0.209769
	14.540000	0.229109
	14.545000	0.119515
	14.550000	0.100175
	14.555000	0.212992
	14.560000	0.238779
	14.565000	0.122738
	14.570000	0.109845
	14.575000	0.212992
	14.580000	0.232333
	14.585000	0.122738
	14.590000	0.100175
	14.595000	0.212992
	14.600000	0.232333
	14.605000	0.119515
	14.610000	0.103398
	14.615000	0.216216
	14.620000	0.229109
	14.625000	0.119515
	14.630000	0.103398
	14.635000	0.216216
	14.640000	0.235556
	14.645000	0.125962
	14.650000	0.103398
	14.655000	0.216216
	14.660000	0.235556
	14.665000	0.119515
	14.670000	0.109845
	14.675000	0.219439
	14.680000	0.229109
	14.685000	0.125962
	14.690000	0.106622
	14.695000	0.219439
	14.700000	0.238779
	14.705000	0.122738
	14.710000	0.113068
	14.715000	0.222663
	14.720000	0.235556
	14.725000	0.125962
	14.730000	0.106622
	14.735000	0.222663
	14.740000	0.235556
	14.745000	0.119515
	14.750000	0.109845
	14.755000	0.222663
	14.760000	0.232333
	14.765000	0.129185
	14.770000	0.116292
	14.775000	0.229109
	14.780000	0.238779
	14.785000	0.129185
	14.790000	0.119515
	14.795000	0.222663
	14.800000	0.235556
	14.805000	0.125962
	14.810000	0.113068
	14.815000	0.219439
	14.820000	0.242003
	14.825000	0.132408
	14.830000	0.119515
	14.835000	0.225886
	14.840000	0.238779
	14.845000	0.125962
	14.850000	0.113068
	14.855000	0.222663
	14.860000	0.235556
	14.865000	0.125962
	14.870000	0.113068
	14.875000	0.222663
	14.880000	0.238779
	14.885000	0.125962
	14.890000	0.116292
	14.895000	0.229109
	14.900000	0.242003
	14.905000	0.135632
	14.910000	0.122738
	14.915000	0.232333
	14.920000	0.238779
	14.925000	0.122738
	14.930000	0.122738
	14.935000	0.232333
	14.940000	0.235556
	14.945000	0.129185
	14.950000	0.122738
	14.955000	0.229109
	14.960000	0.238779
	14.965000	0.129185
	14.970000	0.122738
	14.975000	0.232333
	14.980000	0.245226
	14.985000	0.135632
	14.990000	0.122738
	14.995000	0.235556
	15.000000	0.242003
	15.005000	0.132408
	15.010000	0.122738
	15.015000	0.245226
	15.020000	0.238779
	15.025000	0.132408
	15.030000	0.125962
	15.035000	0.242003
	15.040000	0.242003
	15.045000	0.132408
	15.050000	0.129185
	15.055000	0.235556
	15.060000	0.238779
	15.065000	0.132408
	15.070000	0.122738
	15.075000	0.232333
	15.080000	0.248449
	15.085000	0.132408
	15.090000	0.129185
	15.095000	0.242003
	15.100000	0.245226
	15.105000	0.129185
	15.110000	0.132408
	15.115000	0.242003
	15.120000	0.238779
	15.125000	0.132408
	15.130000	0.125962
	15.135000	0.242003
	15.140000	0.245226
	15.145000	0.135632
	15.150000	0.125962
	15.155000	0.242003
	15.160000	0.245226
	15.165000	0.129185
	15.170000	0.135632
	15.175000	0.235556
	15.180000	0.238779
	15.185000	0.135632
	15.190000	0.129185
	15.195000	0.238779
	15.200000	0.245226
	15.205000	0.132408
	15.210000	0.138855
	15.215000	0.238779
	15.220000	0.248449
	15.225000	0.132408
	15.230000	0.132408
	15.235000	0.235556
	15.240000	0.242003
	15.245000	0.135632
	15.250000	0.132408
	15.255000	0.235556
	15.260000	0.245226
	15.265000	0.132408
	15.270000	0.135632
	15.275000	0.245226
	15.280000	0.248449
	15.285000	0.129185
	15.290000	0.132408
	15.295000	0.238779
	15.300000	0.248449
	15.305000	0.135632
	15.310000	0.135632
	15.315000	0.245226
	15.320000	0.251673
	15.325000	0.142079
	15.330000	0.138855
	15.335000	0.251673
	15.340000	0.248449
	15.345000	0.138855
	15.350000	0.145302
	15.355000	0.258119
	15.360000	0.258119
	15.365000	0.138855
	15.370000	0.145302
	15.375000	0.261343
	15.380000	0.254896
	15.385000	0.145302
	15.390000	0.148525
	15.395000	0.264566
	15.400000	0.261343
	15.405000	0.154972
	15.410000	0.154972
	15.415000	0.274236
	15.420000	0.264566
	15.425000	0.154972
	15.430000	0.161419
	15.435000	0.271013
	15.440000	0.267790
	15.445000	0.161419
	15.450000	0.161419
	15.455000	0.277460
	15.460000	0.271013
	15.465000	0.158195
	15.470000	0.164642
	15.475000	0.274236
	15.480000	0.274236
	15.485000	0.154972
	15.490000	0.167865
	15.495000	0.283906
	15.500000	0.274236
	15.505000	0.158195
	15.510000	0.174312
	15.515000	0.287130
	15.520000	0.277460
	15.525000	0.167865
	15.530000	0.177536
	15.535000	0.290353
	15.540000	0.287130
	15.545000	0.174312
	15.550000	0.174312
	15.555000	0.293576
	15.560000	0.287130
	15.565000	0.171089
	15.570000	0.174312
	15.575000	0.293576
	15.580000	0.287130
	15.585000	0.171089
	15.590000	0.174312
	15.595000	0.287130
	15.600000	0.283906
	15.605000	0.171089
	15.610000	0.177536
	15.615000	0.287130
	15.620000	0.283906
	15.625000	0.167865
	15.630000	0.174312
	15.635000	0.290353
	15.640000	0.280683
	15.645000	0.174312
	15.650000	0.177536
	15.655000	0.290353
	15.660000	0.283906
	15.665000	0.171089
	15.670000	0.177536
	15.675000	0.296800
	15.680000	0.287130
	15.685000	0.171089
	15.690000	0.193652
	15.695000	0.300023
	15.700000	0.296800
	15.705000	0.196876
	15.710000	0.206546
	15.715000	0.322587
	15.720000	0.319363
	15.725000	0.219439
	15.730000	0.229109
	15.735000	0.348374
	15.740000	0.348374
	15.745000	0.245226
	15.750000	0.261343
	15.755000	0.383830
	15.760000	0.390277
	15.765000	0.290353
	15.770000	0.309693
	15.775000	0.425734
	15.780000	0.419287
	15.785000	0.319363
	15.790000	0.341927
	15.795000	0.457968
	15.800000	0.457968
	15.805000	0.351597
	15.810000	0.374160
	15.815000	0.486978
	15.820000	0.493425
	15.825000	0.399947
	15.830000	0.419287
	15.835000	0.532105
	15.840000	0.532105
	15.845000	0.435404
	15.850000	0.448298
	15.855000	0.557892
	15.860000	0.551445
	15.865000	0.445074
	15.870000	0.457968
	15.875000	0.561115
	15.880000	0.548222
	15.885000	0.435404
	15.890000	0.451521
	15.895000	0.557892
	15.900000	0.538552
	15.905000	0.432181
	15.910000	0.445074
	15.915000	0.541775
	15.920000	0.528882
	15.925000	0.432181
	15.930000	0.435404
	15.935000	0.541775
	15.940000	0.522435
	15.945000	0.422511
	15.950000	0.441851
	15.955000	0.541775
	15.960000	0.525658
	15.965000	0.422511
	15.970000	0.432181
	15.975000	0.535328
	15.980000	0.522435
	15.985000	0.412841
	15.990000	0.438628
	15.995000	0.535328
	16.000000	0.515988
	16.005000	0.419287
	16.010000	0.432181
	16.015000	0.525658
	16.020000	0.515988
	16.025000	0.409617
	16.030000	0.425734
	16.035000	0.525658
	16.040000	0.506318
	16.045000	0.406394
	16.050000	0.432181
	16.055000	0.525658
	16.060000	0.499871
	16.065000	0.409617
	16.070000	0.422511
	16.075000	0.525658
	16.080000	0.503095
	16.085000	0.406394
	16.090000	0.419287
	16.095000	0.522435
	16.100000	0.506318
	16.105000	0.406394
	16.110000	0.428957
	16.115000	0.528882
	16.120000	0.512765
	16.125000	0.419287
	16.130000	0.438628
	16.135000	0.548222
	16.140000	0.522435
	16.145000	0.428957
	16.150000	0.441851
	16.155000	0.544998
	16.160000	0.525658
	16.165000	0.419287
	16.170000	0.441851
	16.175000	0.538552
	16.180000	0.519212
	16.185000	0.428957
	16.190000	0.445074
	16.195000	0.538552
	16.200000	0.515988
	16.205000	0.425734
	16.210000	0.445074
	16.215000	0.544998
	16.220000	0.522435
	16.225000	0.428957
	16.230000	0.451521
	16.235000	0.548222
	16.240000	0.532105
	16.245000	0.432181
	16.250000	0.461191
	16.255000	0.554668
	16.260000	0.535328
	16.265000	0.432181
	16.270000	0.464414
	16.275000	0.561115
	16.280000	0.548222
	16.285000	0.451521
	16.290000	0.474085
	16.295000	0.577232
	16.300000	0.557892
	16.305000	0.467638
	16.310000	0.490201
	16.315000	0.590125
	16.320000	0.577232
	16.325000	0.480531
	16.330000	0.506318
	16.335000	0.606242
	16.340000	0.596572
	16.345000	0.493425
	16.350000	0.522435
	16.355000	0.615912
	16.360000	0.596572
	16.365000	0.503095
	16.370000	0.519212
	16.375000	0.612689
	16.380000	0.590125
	16.385000	0.490201
	16.390000	0.512765
	16.395000	0.603019
	16.400000	0.570785
	16.405000	0.470861
	16.410000	0.490201
	16.415000	0.577232
	16.420000	0.544998
	16.425000	0.435404
	16.430000	0.454744
	16.435000	0.538552
	16.440000	0.506318
	16.445000	0.393501
	16.450000	0.409617
	16.455000	0.493425
	16.460000	0.457968
	16.465000	0.351597
	16.470000	0.374160
	16.475000	0.457968
	16.480000	0.422511
	16.485000	0.316140
	16.490000	0.335480
	16.495000	0.419287
	16.500000	0.380607
	16.505000	0.280683
	16.510000	0.300023
	16.515000	0.390277
	16.520000	0.354820
	16.525000	0.251673
	16.530000	0.271013
	16.535000	0.367714
	16.540000	0.332257
	16.545000	0.229109
	16.550000	0.251673
	16.555000	0.351597
	16.560000	0.312917
	16.565000	0.203322
	16.570000	0.229109
	16.575000	0.319363
	16.580000	0.296800
	16.585000	0.183982
	16.590000	0.216216
	16.595000	0.309693
	16.600000	0.277460
	16.605000	0.174312
	16.610000	0.203322
	16.615000	0.290353
	16.620000	0.258119
	16.625000	0.151749
	16.630000	0.183982
	16.635000	0.277460
	16.640000	0.245226
	16.645000	0.138855
	16.650000	0.167865
	16.655000	0.267790
	16.660000	0.235556
	16.665000	0.122738
	16.670000	0.154972
	16.675000	0.261343
	16.680000	0.225886
	16.685000	0.116292
	16.690000	0.148525
	16.695000	0.251673
	16.700000	0.216216
	16.705000	0.116292
	16.710000	0.148525
	16.715000	0.248449
	16.720000	0.219439
	16.725000	0.106622
	16.730000	0.148525
	16.735000	0.242003
	16.740000	0.209769
	16.745000	0.106622
	16.750000	0.135632
	16.755000	0.242003
	16.760000	0.203322
	16.765000	0.106622
	16.770000	0.138855
	16.775000	0.242003
	16.780000	0.200099
	16.785000	0.103398
	16.790000	0.138855
	16.795000	0.238779
	16.800000	0.206546
	16.805000	0.096952
	16.810000	0.135632
	16.815000	0.235556
	16.820000	0.203322
	16.825000	0.096952
	16.830000	0.135632
	16.835000	0.245226
	16.840000	0.203322
	16.845000	0.093728
	16.850000	0.135632
	16.855000	0.242003
	16.860000	0.200099
	16.865000	0.100175
	16.870000	0.135632
	16.875000	0.238779
	16.880000	0.200099
	16.885000	0.100175
	16.890000	0.135632
	16.895000	0.238779
	16.900000	0.200099
	16.905000	0.100175
	16.910000	0.135632
	16.915000	0.238779
	16.920000	0.196876
	16.925000	0.096952
	16.930000	0.132408
	16.935000	0.238779
	16.940000	0.196876
	16.945000	0.093728
	16.950000	0.142079
	16.955000	0.238779
	16.960000	0.196876
	16.965000	0.093728
	16.970000	0.142079
	16.975000	0.235556
	16.980000	0.209769
	16.985000	0.096952
	16.990000	0.135632
	16.995000	0.238779
	17.000000	0.196876
	17.005000	0.096952
	17.010000	0.135632
	17.015000	0.242003
	17.020000	0.196876
	17.025000	0.100175
	17.030000	0.145302
	17.035000	0.242003
	17.040000	0.200099
	17.045000	0.096952
	17.050000	0.138855
	17.055000	0.238779
	17.060000	0.206546
	17.065000	0.096952
	17.070000	0.145302
	17.075000	0.245226
	17.080000	0.200099
	17.085000	0.096952
	17.090000	0.142079
	17.095000	0.242003
	17.100000	0.200099
	17.105000	0.103398
	17.110000	0.148525
	17.115000	0.242003
	17.120000	0.206546
	17.125000	0.103398
	17.130000	0.151749
	17.135000	0.248449
	17.140000	0.206546
	17.145000	0.103398
	17.150000	0.154972
	17.155000	0.261343
	17.160000	0.209769
	17.165000	0.100175
	17.170000	0.154972
	17.175000	0.254896
	17.180000	0.209769
	17.185000	0.103398
	17.190000	0.151749
	17.195000	0.254896
	17.200000	0.209769
	17.205000	0.103398
	17.210000	0.151749
	17.215000	0.258119
	17.220000	0.212992
	17.225000	0.106622
	17.230000	0.158195
	17.235000	0.254896
	17.240000	0.209769
	17.245000	0.109845
	17.250000	0.154972
	17.255000	0.258119
	17.260000	0.206546
	17.265000	0.106622
	17.270000	0.161419
	17.275000	0.258119
	17.280000	0.212992
	17.285000	0.113068
	17.290000	0.154972
	17.295000	0.261343
	17.300000	0.212992
	17.305000	0.109845
	17.310000	0.167865
	17.315000	0.264566
	17.320000	0.212992
	17.325000	0.109845
	17.330000	0.161419
	17.335000	0.261343
	17.340000	0.216216
	17.345000	0.109845
	17.350000	0.164642
	17.355000	0.261343
	17.360000	0.209769
	17.365000	0.113068
	17.370000	0.161419
	17.375000	0.258119
	17.380000	0.209769
	17.385000	0.109845
	17.390000	0.164642
	17.395000	0.264566
	17.400000	0.212992
	17.405000	0.116292
	17.410000	0.161419
	17.415000	0.264566
	17.420000	0.212992
	17.425000	0.109845
	17.430000	0.164642
	17.435000	0.267790
	17.440000	0.212992
	17.445000	0.113068
	17.450000	0.167865
	17.455000	0.258119
	17.460000	0.216216
	17.465000	0.119515
	17.470000	0.171089
	17.475000	0.261343
	17.480000	0.219439
	17.485000	0.116292
	17.490000	0.167865
	17.495000	0.264566
	17.500000	0.212992
	17.505000	0.116292
	17.510000	0.174312
	17.515000	0.267790
	17.520000	0.219439
	17.525000	0.116292
	17.530000	0.174312
	17.535000	0.274236
	17.540000	0.222663
	17.545000	0.119515
	17.550000	0.174312
	17.555000	0.271013
	17.560000	0.219439
	17.565000	0.122738
	17.570000	0.174312
	17.575000	0.280683
	17.580000	0.219439
	17.585000	0.122738
	17.590000	0.180759
	17.595000	0.277460
	17.600000	0.225886
	17.605000	0.122738
	17.610000	0.177536
	17.615000	0.277460
	17.620000	0.216216
	17.625000	0.129185
	17.630000	0.180759
	17.635000	0.277460
	17.640000	0.219439
	17.645000	0.125962
	17.650000	0.183982
	17.655000	0.283906
	17.660000	0.222663
	17.665000	0.122738
	17.670000	0.177536
	17.675000	0.274236
	17.680000	0.225886
	17.685000	0.129185
	17.690000	0.180759
	17.695000	0.280683
	17.700000	0.229109
	17.705000	0.129185
	17.710000	0.183982
	17.715000	0.287130
	17.720000	0.229109
	17.725000	0.132408
	17.730000	0.190429
	17.735000	0.287130
	17.740000	0.229109
	17.745000	0.129185
	17.750000	0.190429
	17.755000	0.290353
	17.760000	0.225886
	17.765000	0.132408
	17.770000	0.190429
	17.775000	0.287130
	17.780000	0.229109
	17.785000	0.132408
	17.790000	0.190429
	17.795000	0.287130
	17.800000	0.225886
	17.805000	0.132408
	17.810000	0.190429
	17.815000	0.287130
	17.820000	0.222663
	17.825000	0.132408
	17.830000	0.193652
	17.835000	0.280683
	17.840000	0.225886
	17.845000	0.129185
	17.850000	0.190429
	17.855000	0.290353
	17.860000	0.229109
	17.865000	0.132408
	17.870000	0.196876
	17.875000	0.283906
	17.880000	0.232333
	17.885000	0.135632
	17.890000	0.190429
	17.895000	0.287130
	17.900000	0.225886
	17.905000	0.129185
	17.910000	0.206546
	17.915000	0.287130
	17.920000	0.232333
	17.925000	0.138855
	17.930000	0.193652
	17.935000	0.287130
	17.940000	0.235556
	17.945000	0.132408
	17.950000	0.196876
	17.955000	0.290353
	17.960000	0.232333
	17.965000	0.135632
	17.970000	0.200099
	17.975000	0.283906
	17.980000	0.229109
	17.985000	0.135632
	17.990000	0.200099
	17.995000	0.296800
	18.000000	0.229109
	18.005000	0.135632
	18.010000	0.200099
	18.015000	0.293576
	18.020000	0.235556
	18.025000	0.138855
	18.030000	0.206546
	18.035000	0.293576
	18.040000	0.222663
	18.045000	0.129185
	18.050000	0.200099
	18.055000	0.293576
	18.060000	0.229109
	18.065000	0.135632
	18.070000	0.200099
	18.075000	0.293576
	18.080000	0.229109
	18.085000	0.142079
	18.090000	0.200099
	18.095000	0.283906
	18.100000	0.225886
	18.105000	0.135632
	18.110000	0.200099
	18.115000	0.290353
	18.120000	0.225886
	18.125000	0.129185
	18.130000	0.200099
	18.135000	0.283906
	18.140000	0.222663
	18.145000	0.132408
	18.150000	0.196876
	18.155000	0.293576
	18.160000	0.225886
	18.165000	0.135632
	18.170000	0.203322
	18.175000	0.290353
	18.180000	0.222663
	18.185000	0.135632
	18.190000	0.203322
	18.195000	0.287130
	18.200000	0.229109
	18.205000	0.129185
	18.210000	0.203322
	18.215000	0.287130
	18.220000	0.225886
	18.225000	0.132408
	18.230000	0.200099
	18.235000	0.283906
	18.240000	0.222663
	18.245000	0.132408
	18.250000	0.200099
	18.255000	0.293576
	18.260000	0.225886
	18.265000	0.135632
	18.270000	0.206546
	18.275000	0.287130
	18.280000	0.219439
	18.285000	0.132408
	18.290000	0.196876
	18.295000	0.287130
	18.300000	0.222663
	18.305000	0.129185
	18.310000	0.206546
	18.315000	0.293576
	18.320000	0.219439
	18.325000	0.132408
	18.330000	0.200099
	18.335000	0.287130
	18.340000	0.219439
	18.345000	0.129185
	18.350000	0.206546
	18.355000	0.287130
	18.360000	0.225886
	18.365000	0.129185
	18.370000	0.203322
	18.375000	0.296800
	18.380000	0.222663
	18.385000	0.135632
	18.390000	0.203322
	18.395000	0.287130
	18.400000	0.219439
	18.405000	0.135632
	18.410000	0.200099
	18.415000	0.296800
	18.420000	0.222663
	18.425000	0.132408
	18.430000	0.209769
	18.435000	0.296800
	18.440000	0.222663
	18.445000	0.135632
	18.450000	0.206546
	18.455000	0.293576
	18.460000	0.219439
	18.465000	0.135632
	18.470000	0.206546
	18.475000	0.300023
	18.480000	0.229109
	18.485000	0.135632
	18.490000	0.209769
	18.495000	0.300023
	18.500000	0.225886
	18.505000	0.135632
	18.510000	0.212992
	18.515000	0.290353
	18.520000	0.225886
	18.525000	0.138855
	18.530000	0.212992
	18.535000	0.296800
	18.540000	0.229109
	18.545000	0.142079
	18.550000	0.209769
	18.555000	0.300023
	18.560000	0.225886
	18.565000	0.142079
	18.570000	0.212992
	18.575000	0.296800
	18.580000	0.225886
	18.585000	0.145302
	18.590000	0.219439
	18.595000	0.303247
	18.600000	0.225886
	18.605000	0.142079
	18.610000	0.216216
	18.615000	0.300023
	18.620000	0.229109
	18.625000	0.142079
	18.630000	0.225886
	18.635000	0.296800
	18.640000	0.229109
	18.645000	0.151749
	18.650000	0.219439
	18.655000	0.306470
	18.660000	0.232333
	18.665000	0.148525
	18.670000	0.222663
	18.675000	0.303247
	18.680000	0.232333
	18.685000	0.148525
	18.690000	0.225886
	18.695000	0.306470
	18.700000	0.229109
	18.705000	0.154972
	18.710000	0.225886
	18.715000	0.306470
	18.720000	0.235556
	18.725000	0.145302
	18.730000	0.225886
	18.735000	0.306470
	18.740000	0.225886
	18.745000	0.145302
	18.750000	0.222663
	18.755000	0.303247
	18.760000	0.229109
	18.765000	0.142079
	18.770000	0.216216
	18.775000	0.300023
	18.780000	0.222663
	18.785000	0.138855
	18.790000	0.219439
	18.795000	0.300023
	18.800000	0.222663
	18.805000	0.145302
	18.810000	0.222663
	18.815000	0.303247
	18.820000	0.235556
	18.825000	0.151749
	18.830000	0.225886
	18.835000	0.316140
	18.840000	0.245226
	18.845000	0.164642
	18.850000	0.254896
	18.855000	0.332257
	18.860000	0.267790
	18.865000	0.190429
	18.870000	0.277460
	18.875000	0.358044
	18.880000	0.293576
	18.885000	0.222663
	18.890000	0.309693
	18.895000	0.390277
	18.900000	0.316140
	18.905000	0.242003
	18.910000	0.332257
	18.915000	0.409617
	18.920000	0.338703
	18.925000	0.261343
	18.930000	0.345150
	18.935000	0.422511
	18.940000	0.341927
	18.945000	0.267790
	18.950000	0.345150
	18.955000	0.428957
	18.960000	0.348374
	18.965000	0.277460
	18.970000	0.354820
	18.975000	0.428957
	18.980000	0.354820
	18.985000	0.274236
	18.990000	0.358044
	18.995000	0.425734
	19.000000	0.348374
	19.005000	0.277460
	19.010000	0.345150
	19.015000	0.425734
	19.020000	0.348374
	19.025000	0.271013
	19.030000	0.358044
	19.035000	0.425734
	19.040000	0.354820
	19.045000	0.283906
	19.050000	0.361267
	19.055000	0.438628
	19.060000	0.367714
	19.065000	0.296800
	19.070000	0.380607
	19.075000	0.457968
	19.080000	0.383830
	19.085000	0.316140
	19.090000	0.396724
	19.095000	0.470861
	19.100000	0.396724
	19.105000	0.322587
	19.110000	0.406394
	19.115000	0.477308
	19.120000	0.399947
	19.125000	0.332257
	19.130000	0.419287
	19.135000	0.493425
	19.140000	0.412841
	19.145000	0.354820
	19.150000	0.428957
	19.155000	0.503095
	19.160000	0.438628
	19.165000	0.367714
	19.170000	0.451521
	19.175000	0.519212
	19.180000	0.445074
	19.185000	0.383830
	19.190000	0.457968
	19.195000	0.535328
	19.200000	0.448298
	19.205000	0.387054
	19.210000	0.464414
	19.215000	0.541775
	19.220000	0.461191
	19.225000	0.399947
	19.230000	0.474085
	19.235000	0.541775
	19.240000	0.464414
	19.245000	0.387054
	19.250000	0.474085
	19.255000	0.532105
	19.260000	0.451521
	19.265000	0.383830
	19.270000	0.467638
	19.275000	0.525658
	19.280000	0.448298
	19.285000	0.377384
	19.290000	0.454744
	19.295000	0.522435
	19.300000	0.441851
	19.305000	0.377384
	19.310000	0.454744
	19.315000	0.515988
	19.320000	0.445074
	19.325000	0.374160
	19.330000	0.451521
	19.335000	0.512765
	19.340000	0.438628
	19.345000	0.370937
	19.350000	0.445074
	19.355000	0.506318
	19.360000	0.432181
	19.365000	0.364490
	19.370000	0.445074
	19.375000	0.512765
	19.380000	0.428957
	19.385000	0.364490
	19.390000	0.445074
	19.395000	0.506318
	19.400000	0.425734
	19.405000	0.367714
	19.410000	0.445074
	19.415000	0.512765
	19.420000	0.435404
	19.425000	0.364490
	19.430000	0.448298
	19.435000	0.512765
	19.440000	0.441851
	19.445000	0.370937
	19.450000	0.451521
	19.455000	0.503095
	19.460000	0.419287
	19.465000	0.358044
	19.470000	0.435404
	19.475000	0.493425
	19.480000	0.412841
	19.485000	0.345150
	19.490000	0.432181
	19.495000	0.486978
	19.500000	0.399947
	19.505000	0.338703
	19.510000	0.419287
	19.515000	0.477308
	19.520000	0.393501
	19.525000	0.335480
	19.530000	0.409617
	19.535000	0.474085
	19.540000	0.390277
	19.545000	0.322587
	19.550000	0.403171
	19.555000	0.461191
	19.560000	0.387054
	19.565000	0.312917
	19.570000	0.403171
	19.575000	0.457968
	19.580000	0.377384
	19.585000	0.306470
	19.590000	0.393501
	19.595000	0.441851
	19.600000	0.358044
	19.605000	0.300023
	19.610000	0.377384
	19.615000	0.435404
	19.620000	0.351597
	19.625000	0.283906
	19.630000	0.364490
	19.635000	0.422511
	19.640000	0.335480
	19.645000	0.264566
	19.650000	0.354820
	19.655000	0.399947
	19.660000	0.316140
	19.665000	0.258119
	19.670000	0.329033
	19.675000	0.387054
	19.680000	0.293576
	19.685000	0.225886
	19.690000	0.309693
	19.695000	0.367714
	19.700000	0.277460
	19.705000	0.203322
	19.710000	0.280683
	19.715000	0.338703
	19.720000	0.251673
	19.725000	0.187206
	19.730000	0.261343
	19.735000	0.319363
	19.740000	0.225886
	19.745000	0.164642
	19.750000	0.248449
	19.755000	0.303247
	19.760000	0.209769
	19.765000	0.151749
	19.770000	0.235556
	19.775000	0.293576
	19.780000	0.200099
	19.785000	0.135632
	19.790000	0.225886
	19.795000	0.277460
	19.800000	0.193652
	19.805000	0.122738
	19.810000	0.209769
	19.815000	0.267790
	19.820000	0.174312
	19.825000	0.113068
	19.830000	0.200099
	19.835000	0.261343
	19.840000	0.167865
	19.845000	0.106622
	19.850000	0.200099
	19.855000	0.258119
	19.860000	0.167865
	19.865000	0.103398
	19.870000	0.193652
	19.875000	0.258119
	19.880000	0.167865
	19.885000	0.103398
	19.890000	0.193652
	19.895000	0.251673
	19.900000	0.154972
	19.905000	0.103398
	19.910000	0.193652
	19.915000	0.251673
	19.920000	0.154972
	19.925000	0.096952
	19.930000	0.193652
	19.935000	0.245226
	19.940000	0.161419
	19.945000	0.103398
	19.950000	0.190429
	19.955000	0.254896
	19.960000	0.154972
	19.965000	0.096952
	19.970000	0.187206
	19.975000	0.248449
	19.980000	0.154972
	19.985000	0.096952
	19.990000	0.190429
	19.995000	0.251673
	20.000000	0.154972
	20.005000	0.090505
	20.010000	0.190429
	20.015000	0.248449
	20.020000	0.161419
	20.025000	0.103398
	20.030000	0.196876
	20.035000	0.248449
	20.040000	0.151749
	20.045000	0.100175
	20.050000	0.193652
	20.055000	0.248449
	20.060000	0.158195
	20.065000	0.096952
	20.070000	0.193652
	20.075000	0.248449
	20.080000	0.148525
	20.085000	0.100175
	20.090000	0.193652
	20.095000	0.258119
	20.100000	0.154972
	20.105000	0.100175
	20.110000	0.196876
	20.115000	0.248449
	20.120000	0.154972
	20.125000	0.100175
	20.130000	0.203322
	20.135000	0.254896
	20.140000	0.158195
	20.145000	0.093728
	20.150000	0.196876
	20.155000	0.251673
	20.160000	0.151749
	20.165000	0.096952
	20.170000	0.200099
	20.175000	0.248449
	20.180000	0.151749
	20.185000	0.100175
	20.190000	0.200099
	20.195000	0.258119
	20.200000	0.151749
	20.205000	0.096952
	20.210000	0.203322
	20.215000	0.251673
	20.220000	0.148525
	20.225000	0.096952
	20.230000	0.196876
	20.235000	0.251673
	20.240000	0.151749
	20.245000	0.103398
	20.250000	0.196876
	20.255000	0.248449
	20.260000	0.154972
	20.265000	0.100175
	20.270000	0.200099
	20.275000	0.251673
	20.280000	0.151749
	20.285000	0.106622
	20.290000	0.209769
	20.295000	0.254896
	20.300000	0.158195
	20.305000	0.103398
	20.310000	0.203322
	20.315000	0.254896
	20.320000	0.158195
	20.325000	0.106622
	20.330000	0.206546
	20.335000	0.261343
	20.340000	0.158195
	20.345000	0.106622
	20.350000	0.216216
	20.355000	0.258119
	20.360000	0.151749
	20.365000	0.106622
	20.370000	0.212992
	20.375000	0.258119
	20.380000	0.158195
	20.385000	0.113068
	20.390000	0.216216
	20.395000	0.267790
	20.400000	0.161419
	20.405000	0.113068
	20.410000	0.216216
	20.415000	0.261343
	20.420000	0.171089
	20.425000	0.113068
	20.430000	0.212992
	20.435000	0.264566
	20.440000	0.161419
	20.445000	0.116292
	20.450000	0.222663
	20.455000	0.264566
	20.460000	0.164642
	20.465000	0.113068
	20.470000	0.225886
	20.475000	0.264566
	20.480000	0.164642
	20.485000	0.119515
	20.490000	0.229109
	20.495000	0.267790
	20.500000	0.167865
	20.505000	0.125962
	20.510000	0.225886
	20.515000	0.274236
	20.520000	0.174312
	20.525000	0.122738
	20.530000	0.225886
	20.535000	0.267790
	20.540000	0.171089
	20.545000	0.125962
	20.550000	0.232333
	20.555000	0.274236
	20.560000	0.171089
	20.565000	0.125962
	20.570000	0.232333
	20.575000	0.274236
	20.580000	0.167865
	20.585000	0.132408
	20.590000	0.232333
	20.595000	0.274236
	20.600000	0.171089
	20.605000	0.132408
	20.610000	0.229109
	20.615000	0.274236
	20.620000	0.167865
	20.625000	0.129185
	20.630000	0.229109
	20.635000	0.280683
	20.640000	0.177536
	20.645000	0.129185
	20.650000	0.238779
	20.655000	0.280683
	20.660000	0.174312
	20.665000	0.129185
	20.670000	0.238779
	20.675000	0.283906
	20.680000	0.180759
	20.685000	0.132408
	20.690000	0.238779
	20.695000	0.277460
	20.700000	0.177536
	20.705000	0.135632
	20.710000	0.242003
	20.715000	0.283906
	20.720000	0.177536
	20.725000	0.142079
	20.730000	0.242003
	20.735000	0.277460
	20.740000	0.180759
	20.745000	0.142079
	20.750000	0.238779
	20.755000	0.283906
	20.760000	0.180759
	20.765000	0.135632
	20.770000	0.248449
	20.775000	0.290353
	20.780000	0.177536
	20.785000	0.142079
	20.790000	0.238779
	20.795000	0.287130
	20.800000	0.180759
	20.805000	0.142079
	20.810000	0.251673
	20.815000	0.290353
	20.820000	0.174312
	20.825000	0.145302
	20.830000	0.248449
	20.835000	0.280683
	20.840000	0.187206
	20.845000	0.145302
	20.850000	0.251673
	20.855000	0.283906
	20.860000	0.183982
	20.865000	0.148525
	20.870000	0.245226
	20.875000	0.287130
	20.880000	0.183982
	20.885000	0.148525
	20.890000	0.254896
	20.895000	0.280683
	20.900000	0.177536
	20.905000	0.151749
	20.910000	0.251673
	20.915000	0.293576
	20.920000	0.180759
	20.925000	0.148525
	20.930000	0.254896
	20.935000	0.283906
	20.940000	0.183982
	20.945000	0.148525
	20.950000	0.251673
	20.955000	0.290353
	20.960000	0.183982
	20.965000	0.142079
	20.970000	0.251673
	20.975000	0.287130
	20.980000	0.174312
	20.985000	0.145302
	20.990000	0.248449
	20.995000	0.290353
	21.000000	0.177536
	21.005000	0.138855
	21.010000	0.248449
	21.015000	0.283906
	21.020000	0.174312
	21.025000	0.148525
	21.030000	0.254896
	21.035000	0.290353
	21.040000	0.183982
	21.045000	0.138855
	21.050000	0.251673
	21.055000	0.280683
	21.060000	0.177536
	21.065000	0.148525
	21.070000	0.251673
	21.075000	0.280683
	21.080000	0.180759
	21.085000	0.145302
	21.090000	0.251673
	21.095000	0.280683
	21.100000	0.171089
	21.105000	0.145302
	21.110000	0.254896
	21.115000	0.287130
	21.120000	0.177536
	21.125000	0.145302
	21.130000	0.258119
	21.135000	0.287130
	21.140000	0.177536
	21.145000	0.148525
	21.150000	0.254896
	21.155000	0.277460
	21.160000	0.177536
	21.165000	0.145302
	21.170000	0.251673
	21.175000	0.287130
	21.180000	0.180759
	21.185000	0.145302
	21.190000	0.251673
	21.195000	0.283906
	21.200000	0.180759
	21.205000	0.138855
	21.210000	0.258119
	21.215000	0.283906
	21.220000	0.174312
	21.225000	0.145302
	21.230000	0.254896
	21.235000	0.287130
	21.240000	0.167865
	21.245000	0.148525
	21.250000	0.254896
	21.255000	0.280683
	21.260000	0.174312
	21.265000	0.148525
	21.270000	0.251673
	21.275000	0.283906
	21.280000	0.174312
	21.285000	0.145302
	21.290000	0.258119
	21.295000	0.290353
	21.300000	0.171089
	21.305000	0.151749
	21.310000	0.261343
	21.315000	0.280683
	21.320000	0.174312
	21.325000	0.154972
	21.330000	0.258119
	21.335000	0.280683
	21.340000	0.177536
	21.345000	0.151749
	21.350000	0.258119
	21.355000	0.283906
	21.360000	0.171089
	21.365000	0.145302
	21.370000	0.254896
	21.375000	0.283906
	21.380000	0.177536
	21.385000	0.151749
	21.390000	0.254896
	21.395000	0.287130
	21.400000	0.174312
	21.405000	0.154972
	21.410000	0.271013
	21.415000	0.287130
	21.420000	0.180759
	21.425000	0.154972
	21.430000	0.267790
	21.435000	0.290353
	21.440000	0.174312
	21.445000	0.161419
	21.450000	0.264566
	21.455000	0.287130
	21.460000	0.174312
	21.465000	0.158195
	21.470000	0.264566
	21.475000	0.287130
	21.480000	0.177536
	21.485000	0.158195
	21.490000	0.267790
	21.495000	0.287130
	21.500000	0.177536
	21.505000	0.158195
	21.510000	0.271013
	21.515000	0.290353
	21.520000	0.171089
	21.525000	0.161419
	21.530000	0.267790
	21.535000	0.290353
	21.540000	0.180759
	21.545000	0.161419
	21.550000	0.271013
	21.555000	0.293576
	21.560000	0.183982
	21.565000	0.158195
	21.570000	0.274236
	21.575000	0.296800
	21.580000	0.180759
	21.585000	0.167865
	21.590000	0.274236
	21.595000	0.293576
	21.600000	0.187206
	21.605000	0.164642
	21.610000	0.271013
	21.615000	0.290353
	21.620000	0.174312
	21.625000	0.167865
	21.630000	0.271013
	21.635000	0.296800
	21.640000	0.183982
	21.645000	0.164642
	21.650000	0.271013
	21.655000	0.293576
	21.660000	0.187206
	21.665000	0.167865
	21.670000	0.277460
	21.675000	0.296800
	21.680000	0.187206
	21.685000	0.167865
	21.690000	0.277460
	21.695000	0.290353
	21.700000	0.183982
	21.705000	0.171089
	21.710000	0.277460
	21.715000	0.300023
	21.720000	0.183982
	21.725000	0.164642
	21.730000	0.280683
	21.735000	0.290353
	21.740000	0.183982
	21.745000	0.164642
	21.750000	0.277460
	21.755000	0.293576
	21.760000	0.183982
	21.765000	0.171089
	21.770000	0.271013
	21.775000	0.293576
	21.780000	0.180759
	21.785000	0.171089
	21.790000	0.274236
	21.795000	0.290353
	21.800000	0.171089
	21.805000	0.164642
	21.810000	0.280683
	21.815000	0.296800
	21.820000	0.183982
	21.825000	0.171089
	21.830000	0.277460
	21.835000	0.296800
	21.840000	0.187206
	21.845000	0.171089
	21.850000	0.283906
	21.855000	0.296800
	21.860000	0.180759
	21.865000	0.164642
	21.870000	0.277460
	21.875000	0.300023
	21.880000	0.180759
	21.885000	0.171089
	21.890000	0.280683
	21.895000	0.293576
	21.900000	0.183982
	21.905000	0.171089
	21.910000	0.283906
	21.915000	0.290353
	21.920000	0.180759
	21.925000	0.174312
	21.930000	0.277460
	21.935000	0.296800
	21.940000	0.180759
	21.945000	0.171089
	21.950000	0.283906
	21.955000	0.293576
	21.960000	0.177536
	21.965000	0.174312
	21.970000	0.283906
	21.975000	0.293576
	21.980000	0.183982
	21.985000	0.171089
	21.990000	0.283906
	21.995000	0.290353
	22.000000	0.183982
	22.005000	0.164642
	22.010000	0.283906
	22.015000	0.290353
	22.020000	0.180759
	22.025000	0.177536
	22.030000	0.287130
	22.035000	0.290353
	22.040000	0.177536
	22.045000	0.171089
	22.050000	0.283906
	22.055000	0.290353
	22.060000	0.180759
	22.065000	0.174312
	22.070000	0.283906
	22.075000	0.293576
	22.080000	0.187206
	22.085000	0.180759
	22.090000	0.293576
	22.095000	0.293576
	22.100000	0.180759
	22.105000	0.180759
	22.110000	0.290353
	22.115000	0.300023
	22.120000	0.180759
	22.125000	0.183982
	22.130000	0.293576
	22.135000	0.300023
	22.140000	0.183982
	22.145000	0.177536
	22.150000	0.287130
	22.155000	0.300023
	22.160000	0.187206
	22.165000	0.180759
	22.170000	0.293576
	22.175000	0.293576
	22.180000	0.180759
	22.185000	0.171089
	22.190000	0.290353
	22.195000	0.287130
	22.200000	0.174312
	22.205000	0.177536
	22.210000	0.283906
	22.215000	0.293576
	22.220000	0.183982
	22.225000	0.177536
	22.230000	0.290353
	22.235000	0.296800
	22.240000	0.187206
	22.245000	0.183982
	22.250000	0.303247
	22.255000	0.312917
	22.260000	0.203322
	22.265000	0.200099
	22.270000	0.319363
	22.275000	0.335480
	22.280000	0.216216
	22.285000	0.225886
	22.290000	0.341927
	22.295000	0.348374
	22.300000	0.238779
	22.305000	0.242003
	22.310000	0.361267
	22.315000	0.364490
	22.320000	0.254896
	22.325000	0.258119
	22.330000	0.377384
	22.335000	0.383830
	22.340000	0.277460
	22.345000	0.280683
	22.350000	0.393501
	22.355000	0.406394
	22.360000	0.290353
	22.365000	0.306470
	22.370000	0.412841
	22.375000	0.425734
	22.380000	0.319363
	22.385000	0.325810
	22.390000	0.438628
	22.395000	0.448298
	22.400000	0.341927
	22.405000	0.338703
	22.410000	0.454744
	22.415000	0.461191
	22.420000	0.351597
	22.425000	0.364490
	22.430000	0.464414
	22.435000	0.474085
	22.440000	0.374160
	22.445000	0.380607
	22.450000	0.480531
	22.455000	0.486978
	22.460000	0.383830
	22.465000	0.396724
	22.470000	0.506318
	22.475000	0.509541
	22.480000	0.399947
	22.485000	0.406394
	22.490000	0.509541
	22.495000	0.512765
	22.500000	0.412841
	22.505000	0.412841
	22.510000	0.522435
	22.515000	0.519212
	22.520000	0.422511
	22.525000	0.428957
	22.530000	0.528882
	22.535000	0.522435
	22.540000	0.425734
	22.545000	0.432181
	22.550000	0.535328
	22.555000	0.528882
	22.560000	0.419287
	22.565000	0.428957
	22.570000	0.525658
	22.575000	0.525658
	22.580000	0.422511
	22.585000	0.428957
	22.590000	0.532105
	22.595000	0.528882
	22.600000	0.419287
	22.605000	0.428957
	22.610000	0.532105
	22.615000	0.528882
	22.620000	0.425734
	22.625000	0.428957
	22.630000	0.532105
	22.635000	0.522435
	22.640000	0.416064
	22.645000	0.425734
	22.650000	0.522435
	22.655000	0.515988
	22.660000	0.416064
	22.665000	0.425734
	22.670000	0.522435
	22.675000	0.519212
	22.680000	0.412841
	22.685000	0.419287
	22.690000	0.522435
	22.695000	0.515988
	22.700000	0.409617
	22.705000	0.419287
	22.710000	0.525658
	22.715000	0.515988
	22.720000	0.406394
	22.725000	0.409617
	22.730000	0.515988
	22.735000	0.506318
	22.740000	0.406394
	22.745000	0.403171
	22.750000	0.509541
	22.755000	0.493425
	22.760000	0.390277
	22.765000	0.393501
	22.770000	0.499871
	22.775000	0.486978
	22.780000	0.383830
	22.785000	0.387054
	22.790000	0.486978
	22.795000	0.480531
	22.800000	0.370937
	22.805000	0.383830
	22.810000	0.490201
	22.815000	0.477308
	22.820000	0.367714
	22.825000	0.380607
	22.830000	0.483755
	22.835000	0.470861
	22.840000	0.364490
	22.845000	0.377384
	22.850000	0.474085
	22.855000	0.474085
	22.860000	0.367714
	22.865000	0.367714
	22.870000	0.474085
	22.875000	0.457968
	22.880000	0.351597
	22.885000	0.361267
	22.890000	0.457968
	22.895000	0.451521
	22.900000	0.338703
	22.905000	0.351597
	22.910000	0.445074
	22.915000	0.428957
	22.920000	0.325810
	22.925000	0.335480
	22.930000	0.425734
	22.935000	0.416064
	22.940000	0.312917
	22.945000	0.316140
	22.950000	0.412841
	22.955000	0.399947
	22.960000	0.283906
	22.965000	0.293576
	22.970000	0.393501
	22.975000	0.374160
	22.980000	0.264566
	22.985000	0.274236
	22.990000	0.374160
	22.995000	0.351597
	23.000000	0.245226
	23.005000	0.248449
	23.010000	0.351597
	23.015000	0.332257
	23.020000	0.222663
	23.025000	0.229109
	23.030000	0.329033
	23.035000	0.309693
	23.040000	0.200099
	23.045000	0.212992
	23.050000	0.312917
	23.055000	0.290353
	23.060000	0.183982
	23.065000	0.196876
	23.070000	0.290353
	23.075000	0.271013
	23.080000	0.164642
	23.085000	0.177536
	23.090000	0.283906
	23.095000	0.267790
	23.100000	0.154972
	23.105000	0.174312
	23.110000	0.274236
	23.115000	0.254896
	23.120000	0.145302
	23.125000	0.154972
	23.130000	0.267790
	23.135000	0.238779
	23.140000	0.129185
	23.145000	0.154972
	23.150000	0.254896
	23.155000	0.232333
	23.160000	0.122738
	23.165000	0.138855
	23.170000	0.245226
	23.175000	0.222663
	23.180000	0.113068
	23.185000	0.125962
	23.190000	0.242003
	23.195000	0.216216
	23.200000	0.113068
	23.205000	0.129185
	23.210000	0.238779
	23.215000	0.216216
	23.220000	0.109845
	23.225000	0.125962
	23.230000	0.229109
	23.235000	0.212992
	23.240000	0.106622
	23.245000	0.129185
	23.250000	0.229109
	23.255000	0.212992
	23.260000	0.103398
	23.265000	0.122738
	23.270000	0.232333
	23.275000	0.212992
	23.280000	0.100175
	23.285000	0.122738
	23.290000	0.229109
	23.295000	0.209769
	23.300000	0.103398
	23.305000	0.122738
	23.310000	0.229109
	23.315000	0.212992
	23.320000	0.093728
	23.325000	0.125962
	23.330000	0.235556
	23.335000	0.216216
	23.340000	0.106622
	23.345000	0.129185
	23.350000	0.235556
	23.355000	0.209769
	23.360000	0.109845
	23.365000	0.132408
	23.370000	0.238779
	23.375000	0.219439
	23.380000	0.103398
	23.385000	0.129185
	23.390000	0.238779
	23.395000	0.212992
	23.400000	0.113068
	23.405000	0.135632
	23.410000	0.238779
	23.415000	0.209769
	23.420000	0.113068
	23.425000	0.135632
	23.430000	0.238779
	23.435000	0.222663
	23.440000	0.109845
	23.445000	0.138855
	23.450000	0.242003
	23.455000	0.225886
	23.460000	0.113068
	23.465000	0.142079
	23.470000	0.242003
	23.475000	0.219439
	23.480000	0.122738
	23.485000	0.148525
	23.490000	0.251673
	23.495000	0.225886
	23.500000	0.113068
	23.505000	0.145302
	23.510000	0.248449
	23.515000	0.225886
	23.520000	0.122738
	23.525000	0.148525
	23.530000	0.251673
	23.535000	0.229109
	23.540000	0.122738
	23.545000	0.151749
	23.550000	0.258119
	23.555000	0.232333
	23.560000	0.125962
	23.565000	0.154972
	23.570000	0.261343
	23.575000	0.235556
	23.580000	0.125962
	23.585000	0.145302
	23.590000	0.261343
	23.595000	0.232333
	23.600000	0.122738
	23.605000	0.151749
	23.610000	0.258119
	23.615000	0.235556
	23.620000	0.122738
	23.625000	0.158195
	23.630000	0.261343
	23.635000	0.229109
	23.640000	0.125962
	23.645000	0.161419
	23.650000	0.261343
	23.655000	0.238779
	23.660000	0.132408
	23.665000	0.158195
	23.670000	0.271013
	23.675000	0.238779
	23.680000	0.129185
	23.685000	0.161419
	23.690000	0.261343
	23.695000	0.229109
	23.700000	0.125962
	23.705000	0.158195
	23.710000	0.264566
	23.715000	0.229109
	23.720000	0.125962
	23.725000	0.151749
	23.730000	0.258119
	23.735000	0.229109
	23.740000	0.125962
	23.745000	0.151749
	23.750000	0.258119
	23.755000	0.235556
	23.760000	0.122738
	23.765000	0.158195
	23.770000	0.267790
	23.775000	0.235556
	23.780000	0.125962
	23.785000	0.158195
	23.790000	0.264566
	23.795000	0.235556
	23.800000	0.122738
	23.805000	0.154972
	23.810000	0.258119
	23.815000	0.235556
	23.820000	0.122738
	23.825000	0.158195
	23.830000	0.261343
	23.835000	0.235556
	23.840000	0.119515
	23.845000	0.151749
	23.850000	0.264566
	23.855000	0.232333
	23.860000	0.122738
	23.865000	0.161419
	23.870000	0.271013
	23.875000	0.232333
	23.880000	0.122738
	23.885000	0.164642
	23.890000	0.267790
	23.895000	0.238779
	23.900000	0.125962
	23.905000	0.158195
	23.910000	0.267790
	23.915000	0.225886
	23.920000	0.125962
	23.925000	0.164642
	23.930000	0.271013
	23.935000	0.235556
	23.940000	0.125962
	23.945000	0.158195
	23.950000	0.274236
	23.955000	0.235556
	23.960000	0.132408
	23.965000	0.161419
	23.970000	0.267790
	23.975000	0.232333
	23.980000	0.125962
	23.985000	0.167865
	23.990000	0.271013
	23.995000	0.232333
	24.000000	0.125962
	24.005000	0.167865
	24.010000	0.271013
	24.015000	0.235556
	24.020000	0.125962
	24.025000	0.171089
	24.030000	0.271013
	24.035000	0.235556
	24.040000	0.125962
	24.045000	0.167865
	24.050000	0.271013
	24.055000	0.235556
	24.060000	0.125962
	24.065000	0.167865
	24.070000	0.271013
	24.075000	0.238779
	24.080000	0.122738
	24.085000	0.167865
	24.090000	0.264566
	24.095000	0.235556
	24.100000	0.125962
	24.105000	0.164642
	24.110000	0.261343
	24.115000	0.235556
	24.120000	0.129185
	24.125000	0.161419
	24.130000	0.264566
	24.135000	0.225886
	24.140000	0.129185
	24.145000	0.167865
	24.150000	0.271013
	24.155000	0.232333
	24.160000	0.122738
	24.165000	0.167865
	24.170000	0.277460
	24.175000	0.225886
	24.180000	0.122738
	24.185000	0.167865
	24.190000	0.267790
	24.195000	0.232333
	24.200000	0.129185
	24.205000	0.161419
	24.210000	0.274236
	24.215000	0.222663
	24.220000	0.129185
	24.225000	0.164642
	24.230000	0.274236
	24.235000	0.229109
	24.240000	0.119515
	24.245000	0.167865
	24.250000	0.271013
	24.255000	0.232333
	24.260000	0.125962
	24.265000	0.171089
	24.270000	0.274236
	24.275000	0.238779
	24.280000	0.122738
	24.285000	0.167865
	24.290000	0.274236
	24.295000	0.232333
	24.300000	0.129185
	24.305000	0.167865
	24.310000	0.271013
	24.315000	0.232333
	24.320000	0.125962
	24.325000	0.171089
	24.330000	0.274236
	24.335000	0.232333
	24.340000	0.125962
	24.345000	0.174312
	24.350000	0.271013
	24.355000	0.225886
	24.360000	0.125962
	24.365000	0.174312
	24.370000	0.274236
	24.375000	0.235556
	24.380000	0.122738
	24.385000	0.177536
	24.390000	0.267790
	24.395000	0.232333
	24.400000	0.125962
	24.405000	0.171089
	24.410000	0.274236
	24.415000	0.229109
	24.420000	0.129185
	24.425000	0.174312
	24.430000	0.274236
	24.435000	0.238779
	24.440000	0.129185
	24.445000	0.177536
	24.450000	0.280683
	24.455000	0.232333
	24.460000	0.129185
	24.465000	0.180759
	24.470000	0.280683
	24.475000	0.225886
	24.480000	0.132408
	24.485000	0.180759
	24.490000	0.283906
	24.495000	0.232333
	24.500000	0.132408
	24.505000	0.187206
	24.510000	0.280683
	24.515000	0.235556
	24.520000	0.138855
	24.525000	0.177536
	24.530000	0.283906
	24.535000	0.238779
	24.540000	0.132408
	24.545000	0.187206
	24.550000	0.283906
	24.555000	0.232333
	24.560000	0.132408
	24.565000	0.180759
	24.570000	0.287130
	24.575000	0.238779
	24.580000	0.142079
	24.585000	0.190429
	24.590000	0.283906
	24.595000	0.235556
	24.600000	0.135632
	24.605000	0.187206
	24.610000	0.287130
	24.615000	0.242003
	24.620000	0.142079
	24.625000	0.190429
	24.630000	0.287130
	24.635000	0.238779
	24.640000	0.138855
	24.645000	0.187206
	24.650000	0.290353
	24.655000	0.238779
	24.660000	0.142079
	24.665000	0.190429
	24.670000	0.293576
	24.675000	0.242003
	24.680000	0.142079
	24.685000	0.190429
	24.690000	0.290353
	24.695000	0.235556
	24.700000	0.138855
	24.705000	0.196876
	24.710000	0.290353
	24.715000	0.235556
	24.720000	0.135632
	24.725000	0.187206
	24.730000	0.296800
	24.735000	0.238779
	24.740000	0.142079
	24.745000	0.193652
	24.750000	0.283906
	24.755000	0.238779
	24.760000	0.142079
	24.765000	0.193652
	24.770000	0.293576
	24.775000	0.238779
	24.780000	0.138855
	24.785000	0.200099
	24.790000	0.293576
	24.795000	0.242003
	24.800000	0.142079
	24.805000	0.200099
	24.810000	0.293576
	24.815000	0.238779
	24.820000	0.142079
	24.825000	0.190429
	24.830000	0.290353
	24.835000	0.242003
	24.840000	0.142079
	24.845000	0.193652
	24.850000	0.293576
	24.855000	0.238779
	24.860000	0.138855
	24.865000	0.196876
	24.870000	0.290353
	24.875000	0.232333
	24.880000	0.142079
	24.885000	0.200099
	24.890000	0.290353
	24.895000	0.238779
	24.900000	0.138855
	24.905000	0.200099
	24.910000	0.290353
	24.915000	0.238779
	24.920000	0.138855
	24.925000	0.203322
	24.930000	0.290353
	24.935000	0.235556
	24.940000	0.142079
	24.945000	0.206546
	24.950000	0.303247
	24.955000	0.242003
	24.960000	0.151749
	24.965000	0.212992
	24.970000	0.312917
	24.975000	0.251673
	24.980000	0.167865
	24.985000	0.219439
	24.990000	0.319363
	24.995000	0.271013
	25.000000	0.177536
	25.005000	0.245226
	25.010000	0.338703
	25.015000	0.280683
	25.020000	0.196876
	25.025000	0.258119
	25.030000	0.354820
	25.035000	0.303247
	25.040000	0.206546
	25.045000	0.267790
	25.050000	0.367714
	25.055000	0.316140
	25.060000	0.225886
	25.065000	0.287130
	25.070000	0.393501
	25.075000	0.341927
	25.080000	0.258119
	25.085000	0.319363
	25.090000	0.425734
	25.095000	0.370937
	25.100000	0.290353
	25.105000	0.361267
	25.110000	0.454744
	25.115000	0.412841
	25.120000	0.325810
	25.125000	0.399947
	25.130000	0.506318
	25.135000	0.464414
	25.140000	0.390277
	25.145000	0.457968
	25.150000	0.557892
	25.155000	0.506318
	25.160000	0.432181
	25.165000	0.493425
	25.170000	0.583679
	25.175000	0.525658
	25.180000	0.438628
	25.185000	0.493425
	25.190000	0.583679
	25.195000	0.522435
	25.200000	0.438628
	25.205000	0.490201
	25.210000	0.567562
	25.215000	0.515988
	25.220000	0.419287
	25.225000	0.474085
	25.230000	0.554668
	25.235000	0.496648
	25.240000	0.399947
	25.245000	0.464414
	25.250000	0.538552
	25.255000	0.483755
	25.260000	0.399947
	25.265000	0.454744
	25.270000	0.541775
	25.275000	0.474085
	25.280000	0.390277
	25.285000	0.451521
	25.290000	0.535328
	25.295000	0.474085
	25.300000	0.387054
	25.305000	0.445074
	25.310000	0.532105
	25.315000	0.477308
	25.320000	0.390277
	25.325000	0.445074
	25.330000	0.532105
	25.335000	0.470861
	25.340000	0.380607
	25.345000	0.438628
	25.350000	0.528882
	25.355000	0.467638
	25.360000	0.374160
	25.365000	0.441851
	25.370000	0.525658
	25.375000	0.464414
	25.380000	0.380607
	25.385000	0.441851
	25.390000	0.525658
	25.395000	0.461191
	25.400000	0.380607
	25.405000	0.438628
	25.410000	0.519212
	25.415000	0.457968
	25.420000	0.367714
	25.425000	0.435404
	25.430000	0.525658
	25.435000	0.457968
	25.440000	0.367714
	25.445000	0.438628
	25.450000	0.519212
	25.455000	0.454744
	25.460000	0.374160
	25.465000	0.435404
	25.470000	0.519212
	25.475000	0.457968
	25.480000	0.377384
	25.485000	0.435404
	25.490000	0.522435
	25.495000	0.457968
	25.500000	0.377384
	25.505000	0.435404
	25.510000	0.522435
	25.515000	0.457968
	25.520000	0.374160
	25.525000	0.432181
	25.530000	0.509541
	25.535000	0.451521
	25.540000	0.367714
	25.545000	0.428957
	25.550000	0.509541
	25.555000	0.451521
	25.560000	0.364490
	25.565000	0.432181
	25.570000	0.515988
	25.575000	0.454744
	25.580000	0.374160
	25.585000	0.435404
	25.590000	0.515988
	25.595000	0.457968
	25.600000	0.380607
	25.605000	0.441851
	25.610000	0.532105
	25.615000	0.464414
	25.620000	0.390277
	25.625000	0.451521
	25.630000	0.532105
	25.635000	0.467638
	25.640000	0.390277
	25.645000	0.464414
	25.650000	0.548222
	25.655000	0.480531
	25.660000	0.406394
	25.665000	0.480531
	25.670000	0.557892
	25.675000	0.506318
	25.680000	0.428957
	25.685000	0.496648
	25.690000	0.577232
	25.695000	0.519212
	25.700000	0.441851
	25.705000	0.512765
	25.710000	0.586902
	25.715000	0.528882
	25.720000	0.454744
	25.725000	0.515988
	25.730000	0.603019
	25.735000	0.532105
	25.740000	0.464414
	25.745000	0.525658
	25.750000	0.606242
	25.755000	0.541775
	25.760000	0.474085
	25.765000	0.544998
	25.770000	0.625582
	25.775000	0.564339
	25.780000	0.496648
	25.785000	0.567562
	25.790000	0.651369
	25.795000	0.593349
	25.800000	0.522435
	25.805000	0.593349
	25.810000	0.677156
	25.815000	0.619136
	25.820000	0.548222
	25.825000	0.615912
	25.830000	0.690050
	25.835000	0.628806
	25.840000	0.561115
	25.845000	0.619136
	25.850000	0.690050
	25.855000	0.622359
	25.860000	0.535328
	25.865000	0.593349
	25.870000	0.648146
	25.875000	0.574009
	25.880000	0.483755
	25.885000	0.538552
	25.890000	0.593349
	25.895000	0.515988
	25.900000	0.425734
	25.905000	0.474085
	25.910000	0.541775
	25.915000	0.454744
	25.920000	0.370937
	25.925000	0.422511
	25.930000	0.480531
	25.935000	0.406394
	25.940000	0.319363
	25.945000	0.383830
	25.950000	0.441851
	25.955000	0.364490
	25.960000	0.277460
	25.965000	0.335480
	25.970000	0.409617
	25.975000	0.329033
	25.980000	0.248449
	25.985000	0.312917
	25.990000	0.383830
	25.995000	0.306470
	26.000000	0.229109
	26.005000	0.296800
	26.010000	0.367714
	26.015000	0.296800
	26.020000	0.212992
	26.025000	0.290353
	26.030000	0.358044
	26.035000	0.280683
	26.040000	0.203322
	26.045000	0.271013
	26.050000	0.348374
	26.055000	0.280683
	26.060000	0.203322
	26.065000	0.271013
	26.070000	0.341927
	26.075000	0.264566
	26.080000	0.193652
	26.085000	0.264566
	26.090000	0.341927
	26.095000	0.258119
	26.100000	0.183982
	26.105000	0.258119
	26.110000	0.322587
	26.115000	0.258119
	26.120000	0.180759
	26.125000	0.251673
	26.130000	0.325810
	26.135000	0.242003
	26.140000	0.167865
	26.145000	0.245226
	26.150000	0.316140
	26.155000	0.245226
	26.160000	0.164642
	26.165000	0.245226
	26.170000	0.309693
	26.175000	0.235556
	26.180000	0.164642
	26.185000	0.235556
	26.190000	0.303247
	26.195000	0.235556
	26.200000	0.158195
	26.205000	0.238779
	26.210000	0.303247
	26.215000	0.229109
	26.220000	0.158195
	26.225000	0.232333
	26.230000	0.303247
	26.235000	0.229109
	26.240000	0.154972
	26.245000	0.229109
	26.250000	0.303247
	26.255000	0.225886
	26.260000	0.148525
	26.265000	0.229109
	26.270000	0.306470
	26.275000	0.219439
	26.280000	0.145302
	26.285000	0.225886
	26.290000	0.300023
	26.295000	0.219439
	26.300000	0.148525
	26.305000	0.222663
	26.310000	0.300023
	26.315000	0.216216
	26.320000	0.151749
	26.325000	0.225886
	26.330000	0.300023
	26.335000	0.216216
	26.340000	0.148525
	26.345000	0.225886
	26.350000	0.296800
	26.355000	0.222663
	26.360000	0.148525
	26.365000	0.225886
	26.370000	0.296800
	26.375000	0.212992
	26.380000	0.142079
	26.385000	0.222663
	26.390000	0.303247
	26.395000	0.216216
	26.400000	0.145302
	26.405000	0.229109
	26.410000	0.296800
	26.415000	0.212992
	26.420000	0.142079
	26.425000	0.229109
	26.430000	0.303247
	26.435000	0.216216
	26.440000	0.138855
	26.445000	0.225886
	26.450000	0.300023
	26.455000	0.212992
	26.460000	0.142079
	26.465000	0.225886
	26.470000	0.300023
	26.475000	0.212992
	26.480000	0.148525
	26.485000	0.225886
	26.490000	0.300023
	26.495000	0.216216
	26.500000	0.142079
	26.505000	0.232333
	26.510000	0.296800
	26.515000	0.219439
	26.520000	0.138855
	26.525000	0.232333
	26.530000	0.303247
	26.535000	0.212992
	26.540000	0.148525
	26.545000	0.225886
	26.550000	0.306470
	26.555000	0.216216
	26.560000	0.151749
	26.565000	0.238779
	26.570000	0.309693
	26.575000	0.225886
	26.580000	0.154972
	26.585000	0.238779
	26.590000	0.312917
	26.595000	0.222663
	26.600000	0.158195
	26.605000	0.245226
	26.610000	0.309693
	26.615000	0.222663
	26.620000	0.161419
	26.625000	0.245226
	26.630000	0.309693
	26.635000	0.229109
	26.640000	0.158195
	26.645000	0.245226
	26.650000	0.316140
	26.655000	0.222663
	26.660000	0.164642
	26.665000	0.238779
	26.670000	0.316140
	26.675000	0.232333
	26.680000	0.161419
	26.685000	0.251673
	26.690000	0.316140
	26.695000	0.229109
	26.700000	0.161419
	26.705000	0.251673
	26.710000	0.316140
	26.715000	0.229109
	26.720000	0.164642
	26.725000	0.254896
	26.730000	0.319363
	26.735000	0.238779
	26.740000	0.164642
	26.745000	0.258119
	26.750000	0.322587
	26.755000	0.232333
	26.760000	0.164642
	26.765000	0.254896
	26.770000	0.322587
	26.775000	0.232333
	26.780000	0.174312
	26.785000	0.258119
	26.790000	0.322587
	26.795000	0.235556
	26.800000	0.167865
	26.805000	0.261343
	26.810000	0.322587
	26.815000	0.242003
	26.820000	0.171089
	26.825000	0.261343
	26.830000	0.329033
	26.835000	0.242003
	26.840000	0.174312
	26.845000	0.267790
	26.850000	0.332257
	26.855000	0.242003
	26.860000	0.171089
	26.865000	0.271013
	26.870000	0.332257
	26.875000	0.248449
	26.880000	0.177536
	26.885000	0.264566
	26.890000	0.329033
	26.895000	0.248449
	26.900000	0.183982
	26.905000	0.277460
	26.910000	0.335480
	26.915000	0.242003
	26.920000	0.183982
	26.925000	0.267790
	26.930000	0.335480
	26.935000	0.245226
	26.940000	0.187206
	26.945000	0.274236
	26.950000	0.345150
	26.955000	0.251673
	26.960000	0.180759
	26.965000	0.274236
	26.970000	0.341927
	26.975000	0.251673
	26.980000	0.187206
	26.985000	0.287130
	26.990000	0.345150
	26.995000	0.248449
	27.000000	0.190429
	27.005000	0.287130
	27.010000	0.345150
	27.015000	0.251673
	27.020000	0.190429
	27.025000	0.283906
	27.030000	0.345150
	27.035000	0.251673
	27.040000	0.190429
	27.045000	0.283906
	27.050000	0.345150
	27.055000	0.254896
	27.060000	0.193652
	27.065000	0.287130
	27.070000	0.351597
	27.075000	0.261343
	27.080000	0.193652
	27.085000	0.290353
	27.090000	0.354820
	27.095000	0.251673
	27.100000	0.200099
	27.105000	0.293576
	27.110000	0.351597
	27.115000	0.261343
	27.120000	0.200099
	27.125000	0.287130
	27.130000	0.341927
	27.135000	0.248449
	27.140000	0.193652
	27.145000	0.283906
	27.150000	0.348374
	27.155000	0.248449
	27.160000	0.193652
	27.165000	0.287130
	27.170000	0.348374
	27.175000	0.248449
	27.180000	0.187206
	27.185000	0.277460
	27.190000	0.341927
	27.195000	0.248449
	27.200000	0.190429
	27.205000	0.283906
	27.210000	0.341927
	27.215000	0.248449
	27.220000	0.193652
	27.225000	0.280683
	27.230000	0.341927
	27.235000	0.251673
	27.240000	0.193652
	27.245000	0.280683
	27.250000	0.338703
	27.255000	0.251673
	27.260000	0.196876
	27.265000	0.287130
	27.270000	0.345150
	27.275000	0.245226
	27.280000	0.196876
	27.285000	0.290353
	27.290000	0.348374
	27.295000	0.258119
	27.300000	0.200099
	27.305000	0.296800
	27.310000	0.351597
	27.315000	0.258119
	27.320000	0.206546
	27.325000	0.300023
	27.330000	0.361267
	27.335000	0.271013
	27.340000	0.219439
	27.345000	0.316140
	27.350000	0.374160
	27.355000	0.277460
	27.360000	0.235556
	27.365000	0.329033
	27.370000	0.387054
	27.375000	0.290353
	27.380000	0.238779
	27.385000	0.335480
	27.390000	0.393501
	27.395000	0.296800
	27.400000	0.238779
	27.405000	0.341927
	27.410000	0.393501
	27.415000	0.303247
	27.420000	0.251673
	27.425000	0.348374
	27.430000	0.399947
	27.435000	0.303247
	27.440000	0.251673
	27.445000	0.358044
	27.450000	0.403171
	27.455000	0.309693
	27.460000	0.254896
	27.465000	0.358044
	27.470000	0.409617
	27.475000	0.312917
	27.480000	0.264566
	27.485000	0.358044
	27.490000	0.412841
	27.495000	0.316140
	27.500000	0.271013
	27.505000	0.367714
	27.510000	0.412841
	27.515000	0.322587
	27.520000	0.271013
	27.525000	0.377384
	27.530000	0.428957
	27.535000	0.322587
	27.540000	0.274236
	27.545000	0.370937
	27.550000	0.425734
	27.555000	0.325810
	27.560000	0.274236
	27.565000	0.380607
	27.570000	0.425734
	27.575000	0.329033
	27.580000	0.283906
	27.585000	0.383830
	27.590000	0.428957
	27.595000	0.332257
	27.600000	0.283906
	27.605000	0.383830
	27.610000	0.428957
	27.615000	0.332257
	27.620000	0.280683
	27.625000	0.387054
	27.630000	0.432181
	27.635000	0.335480
	27.640000	0.296800
	27.645000	0.387054
	27.650000	0.438628
	27.655000	0.341927
	27.660000	0.293576
	27.665000	0.396724
	27.670000	0.438628
	27.675000	0.338703
	27.680000	0.293576
	27.685000	0.399947
	27.690000	0.441851
	27.695000	0.354820
	27.700000	0.300023
	27.705000	0.403171
	27.710000	0.454744
	27.715000	0.354820
	27.720000	0.306470
	27.725000	0.399947
	27.730000	0.451521
	27.735000	0.358044
	27.740000	0.312917
	27.745000	0.409617
	27.750000	0.457968
	27.755000	0.358044
	27.760000	0.312917
	27.765000	0.419287
	27.770000	0.461191
	27.775000	0.361267
	27.780000	0.319363
	27.785000	0.422511
	27.790000	0.464414
	27.795000	0.370937
	27.800000	0.322587
	27.805000	0.425734
	27.810000	0.464414
	27.815000	0.370937
	27.820000	0.332257
	27.825000	0.435404
	27.830000	0.480531
	27.835000	0.387054
	27.840000	0.338703
	27.845000	0.451521
	27.850000	0.499871
	27.855000	0.403171
	27.860000	0.367714
	27.865000	0.477308
	27.870000	0.525658
	27.875000	0.432181
	27.880000	0.399947
	27.885000	0.506318
	27.890000	0.561115
	27.895000	0.461191
	27.900000	0.432181
	27.905000	0.544998
	27.910000	0.593349
	27.915000	0.499871
	27.920000	0.464414
	27.925000	0.574009
	27.930000	0.625582
	27.935000	0.535328
	27.940000	0.499871
	27.945000	0.599796
	27.950000	0.638476
	27.955000	0.548222
	27.960000	0.512765
	27.965000	0.606242
	27.970000	0.661039
	27.975000	0.561115
	27.980000	0.522435
	27.985000	0.625582
	27.990000	0.673933
	27.995000	0.570785
	28.000000	0.538552
	28.005000	0.635252
	28.010000	0.677156
	28.015000	0.583679
	28.020000	0.561115
	28.025000	0.654593
	28.030000	0.699720
	28.035000	0.603019
	28.040000	0.577232
	28.045000	0.677156
	28.050000	0.722283
	28.055000	0.638476
	28.060000	0.603019
	28.065000	0.706166
	28.070000	0.754517
	28.075000	0.657816
	28.080000	0.625582
	28.085000	0.722283
	28.090000	0.764187
	28.095000	0.670709
	28.100000	0.635252
	28.105000	0.731953
	28.110000	0.773857
	28.115000	0.680379
	28.120000	0.641699
	28.125000	0.741623
	28.130000	0.780304
	28.135000	0.686826
	28.140000	0.651369
	28.145000	0.754517
	28.150000	0.783527
	28.155000	0.690050
	28.160000	0.657816
	28.165000	0.754517
	28.170000	0.786750
	28.175000	0.686826
	28.180000	0.651369
	28.185000	0.754517
	28.190000	0.786750
	28.195000	0.690050
	28.200000	0.648146
	28.205000	0.748070
	28.210000	0.780304
	28.215000	0.677156
	28.220000	0.648146
	28.225000	0.744847
	28.230000	0.780304
	28.235000	0.680379
	28.240000	0.644923
	28.245000	0.735177
	28.250000	0.773857
	28.255000	0.670709
	28.260000	0.638476
	28.265000	0.735177
	28.270000	0.767410
	28.275000	0.667486
	28.280000	0.635252
	28.285000	0.728730
	28.290000	0.764187
	28.295000	0.664263
	28.300000	0.622359
	28.305000	0.728730
	28.310000	0.751293
	28.315000	0.654593
	28.320000	0.625582
	28.325000	0.725507
	28.330000	0.754517
	28.335000	0.651369
	28.340000	0.625582
	28.345000	0.722283
	28.350000	0.751293
	28.355000	0.648146
	28.360000	0.615912
	28.365000	0.722283
	28.370000	0.741623
	28.375000	0.644923
	28.380000	0.612689
	28.385000	0.706166
	28.390000	0.735177
	28.395000	0.632029
	28.400000	0.606242
	28.405000	0.699720
	28.410000	0.719060
	28.415000	0.632029
	28.420000	0.593349
	28.425000	0.677156
	28.430000	0.712613
	28.435000	0.606242
	28.440000	0.577232
	28.445000	0.677156
	28.450000	0.696496
	28.455000	0.586902
	28.460000	0.557892
	28.465000	0.651369
	28.470000	0.673933
	28.475000	0.577232
	28.480000	0.541775
	28.485000	0.641699
	28.490000	0.661039
	28.495000	0.557892
	28.500000	0.522435
	28.505000	0.622359
	28.510000	0.654593
	28.515000	0.538552
	28.520000	0.509541
	28.525000	0.606242
	28.530000	0.632029
	28.535000	0.528882
	28.540000	0.496648
	28.545000	0.596572
	28.550000	0.625582
	28.555000	0.519212
	28.560000	0.486978
	28.565000	0.586902
	28.570000	0.615912
	28.575000	0.509541
	28.580000	0.480531
	28.585000	0.586902
	28.590000	0.606242
	28.595000	0.496648
	28.600000	0.467638
	28.605000	0.567562
	28.610000	0.593349
	28.615000	0.486978
	28.620000	0.461191
	28.625000	0.567562
	28.630000	0.583679
	28.635000	0.477308
	28.640000	0.451521
	28.645000	0.548222
	28.650000	0.567562
	28.655000	0.467638
	28.660000	0.435404
	28.665000	0.538552
	28.670000	0.567562
	28.675000	0.457968
	28.680000	0.428957
	28.685000	0.532105
	28.690000	0.551445
	28.695000	0.441851
	28.700000	0.419287
	28.705000	0.525658
	28.710000	0.544998
	28.715000	0.435404
	28.720000	0.412841
	28.725000	0.515988
	28.730000	0.538552
	28.735000	0.428957
	28.740000	0.403171
	28.745000	0.509541
	28.750000	0.528882
	28.755000	0.425734
	28.760000	0.399947
	28.765000	0.499871
	28.770000	0.528882
	28.775000	0.419287
	28.780000	0.403171
	28.785000	0.503095
	28.790000	0.528882
	28.795000	0.419287
	28.800000	0.403171
	28.805000	0.506318
	28.810000	0.522435
	28.815000	0.422511
	28.820000	0.399947
	28.825000	0.503095
	28.830000	0.528882
	28.835000	0.419287
	28.840000	0.399947
	28.845000	0.506318
	28.850000	0.525658
	28.855000	0.416064
	28.860000	0.387054
	28.865000	0.496648
	28.870000	0.522435
	28.875000	0.406394
	28.880000	0.390277
	28.885000	0.490201
	28.890000	0.512765
	28.895000	0.406394
	28.900000	0.387054
	28.905000	0.490201
	28.910000	0.506318
	28.915000	0.406394
	28.920000	0.380607
	28.925000	0.490201
	28.930000	0.515988
	28.935000	0.399947
	28.940000	0.390277
	28.945000	0.493425
	28.950000	0.512765
	28.955000	0.399947
	28.960000	0.380607
	28.965000	0.490201
	28.970000	0.509541
	28.975000	0.403171
	28.980000	0.387054
	28.985000	0.483755
	28.990000	0.509541
	28.995000	0.390277
	29.000000	0.383830
	29.005000	0.493425
	29.010000	0.506318
	29.015000	0.399947
	29.020000	0.387054
	29.025000	0.496648
	29.030000	0.512765
	29.035000	0.399947
	29.040000	0.383830
	29.045000	0.493425
	29.050000	0.509541
	29.055000	0.403171
	29.060000	0.387054
	29.065000	0.493425
	29.070000	0.503095
	29.075000	0.399947
	29.080000	0.380607
	29.085000	0.496648
	29.090000	0.506318
	29.095000	0.393501
	29.100000	0.387054
	29.105000	0.496648
	29.110000	0.506318
	29.115000	0.399947
	29.120000	0.380607
	29.125000	0.493425
	29.130000	0.506318
	29.135000	0.406394
	29.140000	0.380607
	29.145000	0.493425
	29.150000	0.509541
	29.155000	0.399947
	29.160000	0.390277
	29.165000	0.490201
	29.170000	0.499871
	29.175000	0.399947
	29.180000	0.383830
	29.185000	0.486978
	29.190000	0.503095
	29.195000	0.399947
	29.200000	0.387054
	29.205000	0.490201
	29.210000	0.503095
	29.215000	0.390277
	29.220000	0.377384
	29.225000	0.493425
	29.230000	0.496648
	29.235000	0.396724
	29.240000	0.383830
	29.245000	0.493425
	29.250000	0.493425
	29.255000	0.393501
	29.260000	0.377384
	29.265000	0.486978
	29.270000	0.499871
	29.275000	0.393501
	29.280000	0.383830
	29.285000	0.483755
	29.290000	0.499871
	29.295000	0.387054
	29.300000	0.377384
	29.305000	0.483755
	29.310000	0.493425
	29.315000	0.380607
	29.320000	0.374160
	29.325000	0.477308
	29.330000	0.493425
	29.335000	0.383830
	29.340000	0.374160
	29.345000	0.483755
	29.350000	0.496648
	29.355000	0.383830
	29.360000	0.374160
	29.365000	0.486978
	29.370000	0.490201
	29.375000	0.390277
	29.380000	0.374160
	29.385000	0.486978
	29.390000	0.506318
	29.395000	0.390277
	29.400000	0.383830
	29.405000	0.490201
	29.410000	0.499871
	29.415000	0.390277
	29.420000	0.380607
	29.425000	0.486978
	29.430000	0.499871
	29.435000	0.390277
	29.440000	0.380607
	29.445000	0.490201
	29.450000	0.499871
	29.455000	0.390277
	29.460000	0.387054
	29.465000	0.496648
	29.470000	0.496648
	29.475000	0.383830
	29.480000	0.387054
	29.485000	0.493425
	29.490000	0.499871
	29.495000	0.387054
	29.500000	0.377384
	29.505000	0.490201
	29.510000	0.493425
	29.515000	0.387054
	29.520000	0.380607
	29.525000	0.490201
	29.530000	0.496648
	29.535000	0.387054
	29.540000	0.377384
	29.545000	0.483755
	29.550000	0.496648
	29.555000	0.383830
	29.560000	0.377384
	29.565000	0.490201
	29.570000	0.496648
	29.575000	0.387054
	29.580000	0.383830
	29.585000	0.493425
	29.590000	0.496648
	29.595000	0.393501
	29.600000	0.387054
	29.605000	0.499871
	29.610000	0.499871
	29.615000	0.396724
	29.620000	0.387054
	29.625000	0.499871
	29.630000	0.503095
	29.635000	0.390277
	29.640000	0.390277
	29.645000	0.496648
	29.650000	0.506318
	29.655000	0.396724
	29.660000	0.387054
	29.665000	0.499871
	29.670000	0.503095
	29.675000	0.390277
	29.680000	0.393501
	29.685000	0.503095
	29.690000	0.499871
	29.695000	0.387054
	29.700000	0.399947
	29.705000	0.499871
	29.710000	0.503095
	29.715000	0.393501
	29.720000	0.393501
	29.725000	0.499871
	29.730000	0.503095
	29.735000	0.387054
	29.740000	0.390277
	29.745000	0.499871
	29.750000	0.503095
	29.755000	0.390277
	29.760000	0.390277
	29.765000	0.503095
	29.770000	0.503095
	29.775000	0.380607
	29.780000	0.393501
	29.785000	0.499871
	29.790000	0.503095
	29.795000	0.387054
	29.800000	0.383830
	29.805000	0.496648
	29.810000	0.496648
	29.815000	0.383830
	29.820000	0.380607
	29.825000	0.496648
	29.830000	0.496648
	29.835000	0.387054
	29.840000	0.390277
	29.845000	0.493425
	29.850000	0.490201
	29.855000	0.380607
	29.860000	0.387054
	29.865000	0.493425
	29.870000	0.490201
	29.875000	0.387054
	29.880000	0.380607
	29.885000	0.486978
	29.890000	0.486978
	29.895000	0.377384
	29.900000	0.377384
	29.905000	0.490201
	29.910000	0.486978
	29.915000	0.377384
	29.920000	0.377384
	29.925000	0.490201
	29.930000	0.480531
	29.935000	0.377384
	29.940000	0.374160
	29.945000	0.483755
	29.950000	0.486978
	29.955000	0.370937
	29.960000	0.370937
	29.965000	0.483755
	29.970000	0.477308
	29.975000	0.370937
	29.980000	0.380607
	29.985000	0.477308
	29.990000	0.480531
	29.995000	0.364490
	30.000000	0.367714
	30.005000	0.483755
	30.010000	0.477308
	30.015000	0.367714
	30.020000	0.367714
	30.025000	0.474085
	30.030000	0.474085
	30.035000	0.361267
	30.040000	0.374160
	30.045000	0.477308
	30.050000	0.477308
	30.055000	0.361267
	30.060000	0.367714
	30.065000	0.474085
	30.070000	0.470861
	30.075000	0.361267
	30.080000	0.364490
	30.085000	0.470861
	30.090000	0.470861
	30.095000	0.351597
	30.100000	0.361267
	30.105000	0.474085
	30.110000	0.470861
	30.115000	0.354820
	30.120000	0.361267
	30.125000	0.474085
	30.130000	0.467638
	30.135000	0.351597
	30.140000	0.364490
	30.145000	0.470861
	30.150000	0.464414
	30.155000	0.351597
	30.160000	0.361267
	30.165000	0.470861
	30.170000	0.464414
	30.175000	0.351597
	30.180000	0.354820
	30.185000	0.470861
	30.190000	0.461191
	30.195000	0.348374
	30.200000	0.364490
	30.205000	0.464414
	30.210000	0.464414
	30.215000	0.351597
	30.220000	0.351597
	30.225000	0.467638
	30.230000	0.457968
	30.235000	0.348374
	30.240000	0.354820
	30.245000	0.470861
	30.250000	0.457968
	30.255000	0.341927
	30.260000	0.364490
	30.265000	0.470861
	30.270000	0.457968
	30.275000	0.345150
	30.280000	0.354820
	30.285000	0.461191
	30.290000	0.454744
	30.295000	0.341927
	30.300000	0.351597
	30.305000	0.464414
	30.310000	0.464414
	30.315000	0.345150
	30.320000	0.348374
	30.325000	0.461191
	30.330000	0.451521
	30.335000	0.341927
	30.340000	0.351597
	30.345000	0.457968
	30.350000	0.445074
	30.355000	0.338703
	30.360000	0.351597
	30.365000	0.464414
	30.370000	0.454744
	30.375000	0.335480
	30.380000	0.351597
	30.385000	0.461191
	30.390000	0.448298
	30.395000	0.335480
	30.400000	0.351597
	30.405000	0.461191
	30.410000	0.448298
	30.415000	0.338703
	30.420000	0.351597
	30.425000	0.457968
	30.430000	0.451521
	30.435000	0.332257
	30.440000	0.354820
	30.445000	0.457968
	30.450000	0.441851
	30.455000	0.338703
	30.460000	0.341927
	30.465000	0.454744
	30.470000	0.435404
	30.475000	0.332257
	30.480000	0.348374
	30.485000	0.464414
	30.490000	0.441851
	30.495000	0.329033
	30.500000	0.341927
	30.505000	0.457968
	30.510000	0.441851
	30.515000	0.335480
	30.520000	0.348374
	30.525000	0.454744
	30.530000	0.441851
	30.535000	0.332257
	30.540000	0.348374
	30.545000	0.451521
	30.550000	0.445074
	30.555000	0.329033
	30.560000	0.345150
	30.565000	0.454744
	30.570000	0.445074
	30.575000	0.332257
	30.580000	0.341927
	30.585000	0.454744
	30.590000	0.438628
	30.595000	0.329033
	30.600000	0.345150
	30.605000	0.457968
	30.610000	0.441851
	30.615000	0.322587
	30.620000	0.345150
	30.625000	0.454744
	30.630000	0.432181
	30.635000	0.332257
	30.640000	0.345150
	30.645000	0.457968
	30.650000	0.435404
	30.655000	0.325810
	30.660000	0.345150
	30.665000	0.454744
	30.670000	0.432181
	30.675000	0.322587
	30.680000	0.338703
	30.685000	0.457968
	30.690000	0.432181
	30.695000	0.322587
	30.700000	0.341927
	30.705000	0.451521
	30.710000	0.435404
	30.715000	0.325810
	30.720000	0.341927
	30.725000	0.461191
	30.730000	0.445074
	30.735000	0.329033
	30.740000	0.367714
	30.745000	0.470861
	30.750000	0.454744
	30.755000	0.341927
	30.760000	0.370937
	30.765000	0.483755
	30.770000	0.464414
	30.775000	0.367714
	30.780000	0.383830
	30.785000	0.496648
	30.790000	0.483755
	30.795000	0.374160
	30.800000	0.409617
	30.805000	0.522435
	30.810000	0.506318
	30.815000	0.399947
	30.820000	0.422511
	30.825000	0.535328
	30.830000	0.515988
	30.835000	0.412841
	30.840000	0.438628
	30.845000	0.548222
	30.850000	0.535328
	30.855000	0.419287
	30.860000	0.454744
	30.865000	0.567562
	30.870000	0.551445
	30.875000	0.438628
	30.880000	0.477308
	30.885000	0.577232
	30.890000	0.564339
	30.895000	0.457968
	30.900000	0.499871
	30.905000	0.606242
	30.910000	0.590125
	30.915000	0.483755
	30.920000	0.515988
	30.925000	0.622359
	30.930000	0.603019
	30.935000	0.496648
	30.940000	0.528882
	30.945000	0.632029
	30.950000	0.615912
	30.955000	0.503095
	30.960000	0.532105
	30.965000	0.644923
	30.970000	0.625582
	30.975000	0.515988
	30.980000	0.551445
	30.985000	0.654593
	30.990000	0.632029
	30.995000	0.525658
	31.000000	0.564339
	31.005000	0.667486
	31.010000	0.657816
	31.015000	0.548222
	31.020000	0.580455
	31.025000	0.680379
	31.030000	0.657816
	31.035000	0.564339
	31.040000	0.593349
	31.045000	0.702943
	31.050000	0.683603
	31.055000	0.577232
	31.060000	0.599796
	31.065000	0.706166
	31.070000	0.683603
	31.075000	0.580455
	31.080000	0.609466
	31.085000	0.715836
	31.090000	0.690050
	31.095000	0.586902
	31.100000	0.612689
	31.105000	0.702943
	31.110000	0.683603
	31.115000	0.574009
	31.120000	0.603019
	31.125000	0.696496
	31.130000	0.664263
	31.135000	0.557892
	31.140000	0.586902
	31.145000	0.677156
	31.150000	0.651369
	31.155000	0.535328
	31.160000	0.564339
	31.165000	0.654593
	31.170000	0.625582
	31.175000	0.522435
	31.180000	0.544998
	31.185000	0.641699
	31.190000	0.615912
	31.195000	0.509541
	31.200000	0.541775
	31.205000	0.638476
	31.210000	0.606242
	31.215000	0.506318
	31.220000	0.535328
	31.225000	0.635252
	31.230000	0.599796
	31.235000	0.503095
	31.240000	0.535328
	31.245000	0.628806
	31.250000	0.599796
	31.255000	0.499871
	31.260000	0.522435
	31.265000	0.619136
	31.270000	0.590125
	31.275000	0.486978
	31.280000	0.515988
	31.285000	0.612689
	31.290000	0.577232
	31.295000	0.474085
	31.300000	0.509541
	31.305000	0.603019
	31.310000	0.570785
	31.315000	0.470861
	31.320000	0.490201
	31.325000	0.593349
	31.330000	0.564339
	31.335000	0.457968
	31.340000	0.483755
	31.345000	0.580455
	31.350000	0.551445
	31.355000	0.448298
	31.360000	0.477308
	31.365000	0.570785
	31.370000	0.532105
	31.375000	0.435404
	31.380000	0.461191
	31.385000	0.557892
	31.390000	0.525658
	31.395000	0.428957
	31.400000	0.451521
	31.405000	0.551445
	31.410000	0.512765
	31.415000	0.412841
	31.420000	0.441851
	31.425000	0.538552
	31.430000	0.499871
	31.435000	0.396724
	31.440000	0.425734
	31.445000	0.522435
	31.450000	0.483755
	31.455000	0.380607
	31.460000	0.406394
	31.465000	0.509541
	31.470000	0.464414
	31.475000	0.361267
	31.480000	0.387054
	31.485000	0.480531
	31.490000	0.441851
	31.495000	0.338703
	31.500000	0.367714
	31.505000	0.457968
	31.510000	0.422511
	31.515000	0.319363
	31.520000	0.348374
	31.525000	0.448298
	31.530000	0.409617
	31.535000	0.306470
	31.540000	0.345150
	31.545000	0.435404
	31.550000	0.399947
	31.555000	0.300023
	31.560000	0.332257
	31.565000	0.428957
	31.570000	0.393501
	31.575000	0.287130
	31.580000	0.325810
	31.585000	0.422511
	31.590000	0.393501
	31.595000	0.293576
	31.600000	0.322587
	31.605000	0.425734
	31.610000	0.387054
	31.615000	0.287130
	31.620000	0.325810
	31.625000	0.425734
	31.630000	0.383830
	31.635000	0.283906
	31.640000	0.319363
	31.645000	0.419287
	31.650000	0.387054
	31.655000	0.283906
	31.660000	0.319363
	31.665000	0.416064
	31.670000	0.377384
	31.675000	0.283906
	31.680000	0.322587
	31.685000	0.412841
	31.690000	0.380607
	31.695000	0.277460
	31.700000	0.316140
	31.705000	0.416064
	31.710000	0.380607
	31.715000	0.277460
	31.720000	0.316140
	31.725000	0.416064
	31.730000	0.380607
	31.735000	0.267790
	31.740000	0.316140
	31.745000	0.412841
	31.750000	0.374160
	31.755000	0.277460
	31.760000	0.309693
	31.765000	0.412841
	31.770000	0.374160
	31.775000	0.274236
	31.780000	0.312917
	31.785000	0.412841
	31.790000	0.374160
	31.795000	0.267790
	31.800000	0.309693
	31.805000	0.412841
	31.810000	0.374160
	31.815000	0.271013
	31.820000	0.316140
	31.825000	0.416064
	31.830000	0.370937
	31.835000	0.274236
	31.840000	0.316140
	31.845000	0.416064
	31.850000	0.374160
	31.855000	0.271013
	31.860000	0.309693
	31.865000	0.412841
	31.870000	0.367714
	31.875000	0.264566
	31.880000	0.312917
	31.885000	0.406394
	31.890000	0.370937
	31.895000	0.271013
	31.900000	0.312917
	31.905000	0.416064
	31.910000	0.367714
	31.915000	0.267790
	31.920000	0.316140
	31.925000	0.412841
	31.930000	0.374160
	31.935000	0.271013
	31.940000	0.319363
	31.945000	0.416064
	31.950000	0.370937
	31.955000	0.267790
	31.960000	0.309693
	31.965000	0.412841
	31.970000	0.367714
	31.975000	0.264566
	31.980000	0.312917
	31.985000	0.416064
	31.990000	0.370937
	31.995000	0.267790
	32.000000	0.312917
	32.005000	0.416064
	32.010000	0.370937
	32.015000	0.271013
	32.020000	0.312917
	32.025000	0.409617
	32.030000	0.370937
	32.035000	0.264566
	32.040000	0.316140
	32.045000	0.416064
	32.050000	0.370937
	32.055000	0.267790
	32.060000	0.316140
	32.065000	0.412841
	32.070000	0.367714
	32.075000	0.271013
	32.080000	0.316140
	32.085000	0.416064
	32.090000	0.370937
	32.095000	0.267790
	32.100000	0.319363
	32.105000	0.422511
	32.110000	0.370937
	32.115000	0.271013
	32.120000	0.319363
	32.125000	0.412841
	32.130000	0.367714
	32.135000	0.267790
	32.140000	0.316140
	32.145000	0.416064
	32.150000	0.367714
	32.155000	0.267790
	32.160000	0.316140
	32.165000	0.412841
	32.170000	0.367714
	32.175000	0.267790
	32.180000	0.319363
	32.185000	0.412841
	32.190000	0.367714
	32.195000	0.274236
	32.200000	0.316140
	32.205000	0.422511
	32.210000	0.374160
	32.215000	0.267790
	32.220000	0.316140
	32.225000	0.416064
	32.230000	0.364490
	32.235000	0.264566
	32.240000	0.319363
	32.245000	0.416064
	32.250000	0.367714
	32.255000	0.264566
	32.260000	0.312917
	32.265000	0.416064
	32.270000	0.364490
	32.275000	0.267790
	32.280000	0.322587
	32.285000	0.409617
	32.290000	0.358044
	32.295000	0.264566
	32.300000	0.322587
	32.305000	0.412841
	32.310000	0.361267
	32.315000	0.264566
	32.320000	0.312917
	32.325000	0.416064
	32.330000	0.358044
	32.335000	0.267790
	32.340000	0.316140
	32.345000	0.419287
	32.350000	0.364490
	32.355000	0.267790
	32.360000	0.316140
	32.365000	0.412841
	32.370000	0.361267
	32.375000	0.261343
	32.380000	0.316140
	32.385000	0.412841
	32.390000	0.361267
	32.395000	0.264566
	32.400000	0.312917
	32.405000	0.419287
	32.410000	0.361267
	32.415000	0.267790
	32.420000	0.316140
	32.425000	0.419287
	32.430000	0.364490
	32.435000	0.264566
	32.440000	0.319363
	32.445000	0.412841
	32.450000	0.361267
	32.455000	0.261343
	32.460000	0.325810
	32.465000	0.419287
	32.470000	0.367714
	32.475000	0.264566
	32.480000	0.325810
	32.485000	0.412841
	32.490000	0.361267
	32.495000	0.261343
	32.500000	0.319363
	32.505000	0.422511
	32.510000	0.358044
	32.515000	0.264566
	32.520000	0.325810
	32.525000	0.422511
	32.530000	0.364490
	32.535000	0.267790
	32.540000	0.319363
	32.545000	0.416064
	32.550000	0.364490
	32.555000	0.264566
	32.560000	0.322587
	32.565000	0.419287
	32.570000	0.364490
	32.575000	0.261343
	32.580000	0.329033
	32.585000	0.416064
	32.590000	0.358044
	32.595000	0.271013
	32.600000	0.325810
	32.605000	0.412841
	32.610000	0.364490
	32.615000	0.261343
	32.620000	0.325810
	32.625000	0.416064
	32.630000	0.367714
	32.635000	0.264566
	32.640000	0.325810
	32.645000	0.422511
	32.650000	0.358044
	32.655000	0.264566
	32.660000	0.322587
	32.665000	0.419287
	32.670000	0.361267
	32.675000	0.267790
	32.680000	0.325810
	32.685000	0.419287
	32.690000	0.361267
	32.695000	0.264566
	32.700000	0.325810
	32.705000	0.422511
	32.710000	0.361267
	32.715000	0.264566
	32.720000	0.325810
	32.725000	0.425734
	32.730000	0.361267
	32.735000	0.264566
	32.740000	0.325810
	32.745000	0.425734
	32.750000	0.364490
	32.755000	0.264566
	32.760000	0.322587
	32.765000	0.419287
	32.770000	0.358044
	32.775000	0.271013
	32.780000	0.329033
	32.785000	0.422511
	32.790000	0.358044
	32.795000	0.267790
	32.800000	0.322587
	32.805000	0.416064
	32.810000	0.361267
	32.815000	0.264566
	32.820000	0.329033
	32.825000	0.425734
	32.830000	0.358044
	32.835000	0.264566
	32.840000	0.329033
	32.845000	0.419287
	32.850000	0.364490
	32.855000	0.267790
	32.860000	0.329033
	32.865000	0.419287
	32.870000	0.361267
	32.875000	0.264566
	32.880000	0.332257
	32.885000	0.425734
	32.890000	0.358044
	32.895000	0.271013
	32.900000	0.332257
	32.905000	0.425734
	32.910000	0.358044
	32.915000	0.264566
	32.920000	0.335480
	32.925000	0.422511
	32.930000	0.361267
	32.935000	0.264566
	32.940000	0.332257
	32.945000	0.428957
	32.950000	0.364490
	32.955000	0.264566
	32.960000	0.325810
	32.965000	0.419287
	32.970000	0.361267
	32.975000	0.264566
	32.980000	0.329033
	32.985000	0.416064
	32.990000	0.351597
	32.995000	0.261343
	33.000000	0.322587
	33.005000	0.416064
	33.010000	0.354820
	33.015000	0.258119
	33.020000	0.329033
	33.025000	0.419287
	33.030000	0.348374
	33.035000	0.258119
	33.040000	0.325810
	33.045000	0.422511
	33.050000	0.354820
	33.055000	0.261343
	33.060000	0.319363
	33.065000	0.419287
	33.070000	0.351597
	33.075000	0.258119
	33.080000	0.329033
	33.085000	0.412841
	33.090000	0.351597
	33.095000	0.264566
	33.100000	0.329033
	33.105000	0.419287
	33.110000	0.351597
	33.115000	0.261343
	33.120000	0.325810
	33.125000	0.419287
	33.130000	0.348374
	33.135000	0.254896
	33.140000	0.325810
	33.145000	0.419287
	33.150000	0.351597
	33.155000	0.258119
	33.160000	0.329033
	33.165000	0.412841
	33.170000	0.348374
	33.175000	0.258119
	33.180000	0.332257
	33.185000	0.416064
	33.190000	0.341927
	33.195000	0.258119
	33.200000	0.325810
	33.205000	0.409617
	33.210000	0.348374
	33.215000	0.254896
	33.220000	0.325810
	33.225000	0.416064
	33.230000	0.351597
	33.235000	0.264566
	33.240000	0.329033
	33.245000	0.416064
	33.250000	0.351597
	33.255000	0.254896
	33.260000	0.325810
	33.265000	0.412841
	33.270000	0.351597
	33.275000	0.258119
	33.280000	0.335480
	33.285000	0.416064
	33.290000	0.341927
	33.295000	0.261343
	33.300000	0.329033
	33.305000	0.412841
	33.310000	0.345150
	33.315000	0.258119
	33.320000	0.329033
	33.325000	0.416064
	33.330000	0.345150
	33.335000	0.258119
	33.340000	0.329033
	33.345000	0.409617
	33.350000	0.345150
	33.355000	0.258119
	33.360000	0.329033
	33.365000	0.416064
	33.370000	0.348374
	33.375000	0.261343
	33.380000	0.329033
	33.385000	0.419287
	33.390000	0.345150
	33.395000	0.254896
	33.400000	0.332257
	33.405000	0.419287
	33.410000	0.354820
	33.415000	0.261343
	33.420000	0.329033
	33.425000	0.422511
	33.430000	0.348374
	33.435000	0.264566
	33.440000	0.338703
	33.445000	0.416064
	33.450000	0.345150
	33.455000	0.261343
	33.460000	0.332257
	33.465000	0.419287
	33.470000	0.351597
	33.475000	0.261343
	33.480000	0.335480
	33.485000	0.422511
	33.490000	0.348374
	33.495000	0.264566
	33.500000	0.335480
	33.505000	0.419287
	33.510000	0.345150
	33.515000	0.261343
	33.520000	0.335480
	33.525000	0.419287
	33.530000	0.351597
	33.535000	0.267790
	33.540000	0.335480
	33.545000	0.419287
	33.550000	0.348374
	33.555000	0.261343
	33.560000	0.335480
	33.565000	0.422511
	33.570000	0.345150
	33.575000	0.264566
	33.580000	0.338703
	33.585000	0.425734
	33.590000	0.345150
	33.595000	0.264566
	33.600000	0.335480
	33.605000	0.422511
	33.610000	0.345150
	33.615000	0.261343
	33.620000	0.335480
	33.625000	0.419287
	33.630000	0.345150
	33.635000	0.264566
	33.640000	0.338703
	33.645000	0.416064
	33.650000	0.351597
	33.655000	0.264566
	33.660000	0.338703
	33.665000	0.416064
	33.670000	0.348374
	33.675000	0.264566
	33.680000	0.348374
	33.685000	0.422511
	33.690000	0.351597
	33.695000	0.264566
	33.700000	0.341927
	33.705000	0.422511
	33.710000	0.351597
	33.715000	0.274236
	33.720000	0.338703
	33.725000	0.422511
	33.730000	0.351597
	33.735000	0.271013
	33.740000	0.351597
	33.745000	0.432181
	33.750000	0.354820
	33.755000	0.277460
	33.760000	0.351597
	33.765000	0.428957
	33.770000	0.351597
	33.775000	0.267790
	33.780000	0.351597
	33.785000	0.432181
	33.790000	0.358044
	33.795000	0.277460
	33.800000	0.354820
	33.805000	0.438628
	33.810000	0.364490
	33.815000	0.287130
	33.820000	0.370937
	33.825000	0.448298
	33.830000	0.380607
	33.835000	0.293576
	33.840000	0.383830
	33.845000	0.464414
	33.850000	0.393501
	33.855000	0.319363
	33.860000	0.399947
	33.865000	0.480531
	33.870000	0.412841
	33.875000	0.338703
	33.880000	0.425734
	33.885000	0.519212
	33.890000	0.448298
	33.895000	0.370937
	33.900000	0.454744
	33.905000	0.548222
	33.910000	0.474085
	33.915000	0.399947
	33.920000	0.477308
	33.925000	0.561115
	33.930000	0.486978
	33.935000	0.412841
	33.940000	0.490201
	33.945000	0.574009
	33.950000	0.503095
	33.955000	0.422511
	33.960000	0.506318
	33.965000	0.586902
	33.970000	0.519212
	33.975000	0.451521
	33.980000	0.532105
	33.985000	0.619136
	33.990000	0.554668
	33.995000	0.486978
	34.000000	0.570785
	34.005000	0.657816
	34.010000	0.596572
	34.015000	0.522435
	34.020000	0.609466
	34.025000	0.686826
	34.030000	0.622359
	34.035000	0.557892
	34.040000	0.635252
	34.045000	0.719060
	34.050000	0.651369
	34.055000	0.583679
	34.060000	0.664263
	34.065000	0.751293
	34.070000	0.680379
	34.075000	0.612689
	34.080000	0.690050
	34.085000	0.757740
	34.090000	0.690050
	34.095000	0.622359
	34.100000	0.699720
	34.105000	0.770634
	34.110000	0.696496
	34.115000	0.622359
	34.120000	0.699720
	34.125000	0.767410
	34.130000	0.690050
	34.135000	0.619136
	34.140000	0.690050
	34.145000	0.764187
	34.150000	0.690050
	34.155000	0.615912
	34.160000	0.680379
	34.165000	0.751293
	34.170000	0.683603
	34.175000	0.603019
	34.180000	0.673933
	34.185000	0.751293
	34.190000	0.677156
	34.195000	0.599796
	34.200000	0.670709
	34.205000	0.744847
	34.210000	0.664263
	34.215000	0.583679
	34.220000	0.664263
	34.225000	0.735177
	34.230000	0.651369
	34.235000	0.586902
	34.240000	0.657816
	34.245000	0.722283
	34.250000	0.648146
	34.255000	0.577232
	34.260000	0.654593
	34.265000	0.722283
	34.270000	0.641699
	34.275000	0.574009
	34.280000	0.648146
	34.285000	0.715836
	34.290000	0.635252
	34.295000	0.567562
	34.300000	0.644923
	34.305000	0.712613
	34.310000	0.635252
	34.315000	0.567562
	34.320000	0.638476
	34.325000	0.706166
	34.330000	0.635252
	34.335000	0.567562
	34.340000	0.641699
	34.345000	0.702943
	34.350000	0.625582
	34.355000	0.561115
	34.360000	0.635252
	34.365000	0.696496
	34.370000	0.625582
	34.375000	0.557892
	34.380000	0.635252
	34.385000	0.699720
	34.390000	0.625582
	34.395000	0.557892
	34.400000	0.632029
	34.405000	0.696496
	34.410000	0.619136
	34.415000	0.554668
	34.420000	0.632029
	34.425000	0.693273
	34.430000	0.615912
	34.435000	0.548222
	34.440000	0.632029
	34.445000	0.693273
	34.450000	0.615912
	34.455000	0.554668
	34.460000	0.622359
	34.465000	0.693273
	34.470000	0.612689
	34.475000	0.557892
	34.480000	0.622359
	34.485000	0.693273
	34.490000	0.612689
	34.495000	0.541775
	34.500000	0.622359
	34.505000	0.686826
	34.510000	0.606242
	34.515000	0.541775
	34.520000	0.606242
	34.525000	0.670709
	34.530000	0.593349
	34.535000	0.525658
	34.540000	0.603019
	34.545000	0.664263
	34.550000	0.580455
	34.555000	0.512765
	34.560000	0.590125
	34.565000	0.648146
	34.570000	0.570785
	34.575000	0.490201
	34.580000	0.564339
	34.585000	0.625582
	34.590000	0.538552
	34.595000	0.467638
	34.600000	0.532105
	34.605000	0.593349
	34.610000	0.506318
	34.615000	0.438628
	34.620000	0.512765
	34.625000	0.574009
	34.630000	0.477308
	34.635000	0.409617
	34.640000	0.486978
	34.645000	0.541775
	34.650000	0.457968
	34.655000	0.383830
	34.660000	0.454744
	34.665000	0.515988
	34.670000	0.422511
	34.675000	0.364490
	34.680000	0.432181
	34.685000	0.493425
	34.690000	0.399947
	34.695000	0.335480
	34.700000	0.409617
	34.705000	0.467638
	34.710000	0.383830
	34.715000	0.319363
	34.720000	0.387054
	34.725000	0.454744
	34.730000	0.364490
	34.735000	0.293576
	34.740000	0.377384
	34.745000	0.435404
	34.750000	0.345150
	34.755000	0.277460
	34.760000	0.358044
	34.765000	0.412841
	34.770000	0.329033
	34.775000	0.258119
	34.780000	0.345150
	34.785000	0.406394
	34.790000	0.316140
	34.795000	0.251673
	34.800000	0.332257
	34.805000	0.396724
	34.810000	0.306470
	34.815000	0.238779
	34.820000	0.322587
	34.825000	0.380607
	34.830000	0.303247
	34.835000	0.232333
	34.840000	0.312917
	34.845000	0.377384
	34.850000	0.296800
	34.855000	0.229109
	34.860000	0.309693
	34.865000	0.380607
	34.870000	0.283906
	34.875000	0.225886
	34.880000	0.312917
	34.885000	0.374160
	34.890000	0.287130
	34.895000	0.222663
	34.900000	0.306470
	34.905000	0.367714
	34.910000	0.277460
	34.915000	0.219439
	34.920000	0.306470
	34.925000	0.374160
	34.930000	0.280683
	34.935000	0.216216
	34.940000	0.306470
	34.945000	0.370937
	34.950000	0.283906
	34.955000	0.216216
	34.960000	0.303247
	34.965000	0.370937
	34.970000	0.280683
	34.975000	0.216216
	34.980000	0.303247
	34.985000	0.364490
	34.990000	0.280683
	34.995000	0.216216
	35.000000	0.303247
	35.005000	0.364490
	35.010000	0.274236
	35.015000	0.212992
	35.020000	0.303247
	35.025000	0.364490
	35.030000	0.274236
	35.035000	0.212992
	35.040000	0.300023
	35.045000	0.367714
	35.050000	0.274236
	35.055000	0.216216
	35.060000	0.303247
	35.065000	0.367714
	35.070000	0.274236
	35.075000	0.216216
	35.080000	0.306470
	35.085000	0.367714
	35.090000	0.280683
	35.095000	0.212992
	35.100000	0.303247
	35.105000	0.364490
	35.110000	0.274236
	35.115000	0.216216
	35.120000	0.303247
	35.125000	0.364490
	35.130000	0.274236
	35.135000	0.212992
	35.140000	0.309693
	35.145000	0.370937
	35.150000	0.277460
	35.155000	0.216216
	35.160000	0.303247
	35.165000	0.364490
	35.170000	0.274236
	35.175000	0.219439
	35.180000	0.312917
	35.185000	0.367714
	35.190000	0.280683
	35.195000	0.219439
	35.200000	0.309693
	35.205000	0.374160
	35.210000	0.280683
	35.215000	0.222663
	35.220000	0.312917
	35.225000	0.374160
	35.230000	0.283906
	35.235000	0.216216
	35.240000	0.309693
	35.245000	0.370937
	35.250000	0.277460
	35.255000	0.219439
	35.260000	0.309693
	35.265000	0.374160
	35.270000	0.280683
	35.275000	0.225886
	35.280000	0.309693
	35.285000	0.374160
	35.290000	0.290353
	35.295000	0.225886
	35.300000	0.316140
	35.305000	0.370937
	35.310000	0.280683
	35.315000	0.229109
	35.320000	0.316140
	35.325000	0.370937
	35.330000	0.287130
	35.335000	0.229109
	35.340000	0.322587
	35.345000	0.374160
	35.350000	0.283906
	35.355000	0.229109
	35.360000	0.316140
	35.365000	0.374160
	35.370000	0.280683
	35.375000	0.229109
	35.380000	0.325810
	35.385000	0.380607
	35.390000	0.283906
	35.395000	0.222663
	35.400000	0.322587
	35.405000	0.383830
	35.410000	0.280683
	35.415000	0.225886
	35.420000	0.316140
	35.425000	0.383830
	35.430000	0.283906
	35.435000	0.222663
	35.440000	0.319363
	35.445000	0.383830
	35.450000	0.280683
	35.455000	0.225886
	35.460000	0.325810
	35.465000	0.380607
	35.470000	0.283906
	35.475000	0.229109
	35.480000	0.325810
	35.485000	0.383830
	35.490000	0.277460
	35.495000	0.235556
	35.500000	0.322587
	35.505000	0.377384
	35.510000	0.290353
	35.515000	0.232333
	35.520000	0.329033
	35.525000	0.387054
	35.530000	0.287130
	35.535000	0.232333
	35.540000	0.322587
	35.545000	0.383830
	35.550000	0.283906
	35.555000	0.229109
	35.560000	0.329033
	35.565000	0.383830
	35.570000	0.290353
	35.575000	0.232333
	35.580000	0.325810
	35.585000	0.383830
	35.590000	0.283906
	35.595000	0.222663
	35.600000	0.325810
	35.605000	0.387054
	35.610000	0.283906
	35.615000	0.232333
	35.620000	0.329033
	35.625000	0.380607
	35.630000	0.280683
	35.635000	0.232333
	35.640000	0.325810
	35.645000	0.383830
	35.650000	0.283906
	35.655000	0.238779
	35.660000	0.325810
	35.665000	0.383830
	35.670000	0.287130
	35.675000	0.232333
	35.680000	0.329033
	35.685000	0.377384
	35.690000	0.287130
	35.695000	0.235556
	35.700000	0.329033
	35.705000	0.380607
	35.710000	0.283906
	35.715000	0.235556
	35.720000	0.329033
	35.725000	0.390277
	35.730000	0.293576
	35.735000	0.235556
	35.740000	0.329033
	35.745000	0.387054
	35.750000	0.290353
	35.755000	0.238779
	35.760000	0.338703
	35.765000	0.380607
	35.770000	0.287130
	35.775000	0.238779
	35.780000	0.332257
	35.785000	0.387054
	35.790000	0.290353
	35.795000	0.238779
	35.800000	0.335480
	35.805000	0.387054
	35.810000	0.287130
	35.815000	0.235556
	35.820000	0.332257
	35.825000	0.387054
	35.830000	0.287130
	35.835000	0.235556
	35.840000	0.329033
	35.845000	0.393501
	35.850000	0.293576
	35.855000	0.238779
	35.860000	0.329033
	35.865000	0.393501
	35.870000	0.293576
	35.875000	0.245226
	35.880000	0.338703
	35.885000	0.387054
	35.890000	0.290353
	35.895000	0.235556
	35.900000	0.335480
	35.905000	0.390277
	35.910000	0.293576
	35.915000	0.242003
	35.920000	0.338703
	35.925000	0.393501
	35.930000	0.290353
	35.935000	0.242003
	35.940000	0.332257
	35.945000	0.396724
	35.950000	0.287130
	35.955000	0.235556
	35.960000	0.338703
	35.965000	0.396724
	35.970000	0.290353
	35.975000	0.238779
	35.980000	0.341927
	35.985000	0.390277
	35.990000	0.287130
	35.995000	0.238779
	36.000000	0.338703
	36.005000	0.383830
	36.010000	0.290353
	36.015000	0.235556
	36.020000	0.338703
	36.025000	0.390277
	36.030000	0.293576
	36.035000	0.235556
	36.040000	0.341927
	36.045000	0.380607
	36.050000	0.283906
	36.055000	0.235556
	36.060000	0.338703
	36.065000	0.390277
	36.070000	0.287130
	36.075000	0.242003
	36.080000	0.335480
	36.085000	0.387054
	36.090000	0.283906
	36.095000	0.232333
	36.100000	0.332257
	36.105000	0.383830
	36.110000	0.283906
	36.115000	0.235556
	36.120000	0.335480
	36.125000	0.383830
	36.130000	0.287130
	36.135000	0.238779
	36.140000	0.335480
	36.145000	0.383830
	36.150000	0.283906
	36.155000	0.235556
	36.160000	0.335480
	36.165000	0.383830
	36.170000	0.283906
	36.175000	0.238779
	36.180000	0.338703
	36.185000	0.383830
	36.190000	0.283906
	36.195000	0.232333
	36.200000	0.341927
	36.205000	0.387054
	36.210000	0.283906
	36.215000	0.238779
	36.220000	0.335480
	36.225000	0.383830
	36.230000	0.287130
	36.235000	0.238779
	36.240000	0.338703
	36.245000	0.380607
	36.250000	0.290353
	36.255000	0.232333
	36.260000	0.345150
	36.265000	0.387054
	36.270000	0.290353
	36.275000	0.235556
	36.280000	0.338703
	36.285000	0.380607
	36.290000	0.283906
	36.295000	0.232333
	36.300000	0.335480
	36.305000	0.383830
	36.310000	0.277460
	36.315000	0.238779
	36.320000	0.338703
	36.325000	0.387054
	36.330000	0.283906
	36.335000	0.238779
	36.340000	0.338703
	36.345000	0.387054
	36.350000	0.283906
	36.355000	0.238779
	36.360000	0.338703
	36.365000	0.393501
	36.370000	0.280683
	36.375000	0.235556
	36.380000	0.348374
	36.385000	0.383830
	36.390000	0.283906
	36.395000	0.235556
	36.400000	0.335480
	36.405000	0.383830
	36.410000	0.280683
	36.415000	0.235556
	36.420000	0.338703
	36.425000	0.383830
	36.430000	0.283906
	36.435000	0.242003
	36.440000	0.338703
	36.445000	0.377384
	36.450000	0.283906
	36.455000	0.242003
	36.460000	0.341927
	36.465000	0.383830
	36.470000	0.283906
	36.475000	0.242003
	36.480000	0.345150
	36.485000	0.383830
	36.490000	0.283906
	36.495000	0.242003
	36.500000	0.341927
	36.505000	0.387054
	36.510000	0.280683
	36.515000	0.235556
	36.520000	0.338703
	36.525000	0.383830
	36.530000	0.280683
	36.535000	0.238779
	36.540000	0.338703
	36.545000	0.383830
	36.550000	0.287130
	36.555000	0.235556
	36.560000	0.338703
	36.565000	0.387054
	36.570000	0.283906
	36.575000	0.242003
	36.580000	0.341927
	36.585000	0.387054
	36.590000	0.283906
	36.595000	0.245226
	36.600000	0.341927
	36.605000	0.387054
	36.610000	0.287130
	36.615000	0.238779
	36.620000	0.345150
	36.625000	0.383830
	36.630000	0.283906
	36.635000	0.245226
	36.640000	0.341927
	36.645000	0.383830
	36.650000	0.280683
	36.655000	0.242003
	36.660000	0.348374
	36.665000	0.380607
	36.670000	0.283906
	36.675000	0.242003
	36.680000	0.348374
	36.685000	0.387054
	36.690000	0.280683
	36.695000	0.238779
	36.700000	0.341927
	36.705000	0.383830
	36.710000	0.280683
	36.715000	0.245226
	36.720000	0.341927
	36.725000	0.393501
	36.730000	0.280683
	36.735000	0.242003
	36.740000	0.345150
	36.745000	0.387054
	36.750000	0.287130
	36.755000	0.235556
	36.760000	0.348374
	36.765000	0.383830
	36.770000	0.280683
	36.775000	0.248449
	36.780000	0.345150
	36.785000	0.387054
	36.790000	0.280683
	36.795000	0.242003
	36.800000	0.351597
	36.805000	0.380607
	36.810000	0.283906
	36.815000	0.245226
	36.820000	0.351597
	36.825000	0.390277
	36.830000	0.280683
	36.835000	0.248449
	36.840000	0.348374
	36.845000	0.387054
	36.850000	0.283906
	36.855000	0.245226
	36.860000	0.348374
	36.865000	0.383830
	36.870000	0.287130
	36.875000	0.248449
	36.880000	0.351597
	36.885000	0.383830
	36.890000	0.290353
	36.895000	0.248449
	36.900000	0.348374
	36.905000	0.387054
	36.910000	0.283906
	36.915000	0.245226
	36.920000	0.348374
	36.925000	0.390277
	36.930000	0.287130
	36.935000	0.245226
	36.940000	0.358044
	36.945000	0.387054
	36.950000	0.280683
	36.955000	0.245226
	36.960000	0.354820
	36.965000	0.390277
	36.970000	0.283906
	36.975000	0.251673
	36.980000	0.351597
	36.985000	0.387054
	36.990000	0.280683
	36.995000	0.248449
	37.000000	0.351597
	37.005000	0.390277
	37.010000	0.287130
	37.015000	0.245226
	37.020000	0.354820
	37.025000	0.387054
	37.030000	0.283906
	37.035000	0.245226
	37.040000	0.351597
	37.045000	0.390277
	37.050000	0.283906
	37.055000	0.248449
	37.060000	0.351597
	37.065000	0.390277
	37.070000	0.280683
	37.075000	0.242003
	37.080000	0.358044
	37.085000	0.390277
	37.090000	0.280683
	37.095000	0.245226
	37.100000	0.351597
	37.105000	0.387054
	37.110000	0.283906
	37.115000	0.251673
	37.120000	0.348374
	37.125000	0.393501
	37.130000	0.280683
	37.135000	0.245226
	37.140000	0.361267
	37.145000	0.393501
	37.150000	0.283906
	37.155000	0.245226
	37.160000	0.354820
	37.165000	0.387054
	37.170000	0.287130
	37.175000	0.248449
	37.180000	0.358044
	37.185000	0.390277
	37.190000	0.283906
	37.195000	0.251673
	37.200000	0.354820
	37.205000	0.396724
	37.210000	0.283906
	37.215000	0.251673
	37.220000	0.358044
	37.225000	0.387054
	37.230000	0.277460
	37.235000	0.248449
	37.240000	0.358044
	37.245000	0.393501
	37.250000	0.280683
	37.255000	0.245226
	37.260000	0.354820
	37.265000	0.393501
	37.270000	0.277460
	37.275000	0.251673
	37.280000	0.358044
	37.285000	0.390277
	37.290000	0.283906
	37.295000	0.251673
	37.300000	0.358044
	37.305000	0.396724
	37.310000	0.280683
	37.315000	0.248449
	37.320000	0.358044
	37.325000	0.390277
	37.330000	0.283906
	37.335000	0.251673
	37.340000	0.358044
	37.345000	0.387054
	37.350000	0.280683
	37.355000	0.248449
	37.360000	0.361267
	37.365000	0.390277
	37.370000	0.280683
	37.375000	0.254896
	37.380000	0.361267
	37.385000	0.393501
	37.390000	0.280683
	37.395000	0.245226
	37.400000	0.364490
	37.405000	0.387054
	37.410000	0.277460
	37.415000	0.251673
	37.420000	0.354820
	37.425000	0.390277
	37.430000	0.280683
	37.435000	0.248449
	37.440000	0.358044
	37.445000	0.390277
	37.450000	0.280683
	37.455000	0.258119
	37.460000	0.358044
	37.465000	0.390277
	37.470000	0.283906
	37.475000	0.258119
	37.480000	0.358044
	37.485000	0.390277
	37.490000	0.280683
	37.495000	0.251673
	37.500000	0.358044
	37.505000	0.390277
	37.510000	0.277460
	37.515000	0.251673
	37.520000	0.354820
	37.525000	0.393501
	37.530000	0.280683
	37.535000	0.251673
	37.540000	0.361267
	37.545000	0.387054
	37.550000	0.274236
	37.555000	0.251673
	37.560000	0.358044
	37.565000	0.380607
	37.570000	0.274236
	37.575000	0.251673
	37.580000	0.361267
	37.585000	0.387054
	37.590000	0.274236
	37.595000	0.251673
	37.600000	0.361267
	37.605000	0.387054
	37.610000	0.274236
	37.615000	0.254896
	37.620000	0.358044
	37.625000	0.387054
	37.630000	0.277460
	37.635000	0.245226
	37.640000	0.354820
	37.645000	0.390277
	37.650000	0.274236
	37.655000	0.248449
	37.660000	0.358044
	37.665000	0.387054
	37.670000	0.271013
	37.675000	0.251673
	37.680000	0.354820
	37.685000	0.380607
	37.690000	0.274236
	37.695000	0.251673
	37.700000	0.358044
	37.705000	0.383830
	37.710000	0.274236
	37.715000	0.251673
	37.720000	0.358044
	37.725000	0.374160
	37.730000	0.274236
	37.735000	0.248449
	37.740000	0.358044
	37.745000	0.380607
	37.750000	0.274236
	37.755000	0.251673
	37.760000	0.354820
	37.765000	0.387054
	37.770000	0.274236
	37.775000	0.248449
	37.780000	0.364490
	37.785000	0.387054
	37.790000	0.271013
	37.795000	0.248449
	37.800000	0.358044
	37.805000	0.383830
	37.810000	0.271013
	37.815000	0.248449
	37.820000	0.358044
	37.825000	0.383830
	37.830000	0.277460
	37.835000	0.251673
	37.840000	0.351597
	37.845000	0.377384
	37.850000	0.274236
	37.855000	0.248449
	37.860000	0.354820
	37.865000	0.380607
	37.870000	0.271013
	37.875000	0.245226
	37.880000	0.351597
	37.885000	0.383830
	37.890000	0.271013
	37.895000	0.251673
	37.900000	0.364490
	37.905000	0.377384
	37.910000	0.271013
	37.915000	0.245226
	37.920000	0.354820
	37.925000	0.380607
	37.930000	0.271013
	37.935000	0.251673
	37.940000	0.351597
	37.945000	0.380607
	37.950000	0.271013
	37.955000	0.248449
	37.960000	0.354820
	37.965000	0.380607
	37.970000	0.271013
	37.975000	0.248449
	37.980000	0.361267
	37.985000	0.380607
	37.990000	0.267790
	37.995000	0.251673
	38.000000	0.361267
	38.005000	0.380607
	38.010000	0.274236
	38.015000	0.245226
	38.020000	0.354820
	38.025000	0.380607
	38.030000	0.267790
	38.035000	0.251673
	38.040000	0.354820
	38.045000	0.383830
	38.050000	0.271013
	38.055000	0.245226
	38.060000	0.354820
	38.065000	0.380607
	38.070000	0.267790
	38.075000	0.248449
	38.080000	0.364490
	38.085000	0.380607
	38.090000	0.264566
	38.095000	0.245226
	38.100000	0.358044
	38.105000	0.377384
	38.110000	0.271013
	38.115000	0.248449
	38.120000	0.358044
	38.125000	0.377384
	38.130000	0.271013
	38.135000	0.242003
	38.140000	0.358044
	38.145000	0.377384
	38.150000	0.267790
	38.155000	0.245226
	38.160000	0.354820
	38.165000	0.380607
	38.170000	0.267790
	38.175000	0.251673
	38.180000	0.358044
	38.185000	0.374160
	38.190000	0.264566
	38.195000	0.245226
	38.200000	0.354820
	38.205000	0.377384
	38.210000	0.264566
	38.215000	0.251673
	38.220000	0.358044
	38.225000	0.374160
	38.230000	0.267790
	38.235000	0.245226
	38.240000	0.358044
	38.245000	0.374160
	38.250000	0.261343
	38.255000	0.248449
	38.260000	0.358044
	38.265000	0.374160
	38.270000	0.264566
	38.275000	0.254896
	38.280000	0.354820
	38.285000	0.374160
	38.290000	0.271013
	38.295000	0.245226
	38.300000	0.351597
	38.305000	0.374160
	38.310000	0.264566
	38.315000	0.251673
	38.320000	0.354820
	38.325000	0.374160
	38.330000	0.261343
	38.335000	0.245226
	38.340000	0.351597
	38.345000	0.374160
	38.350000	0.264566
	38.355000	0.242003
	38.360000	0.351597
	38.365000	0.370937
	38.370000	0.261343
	38.375000	0.242003
	38.380000	0.354820
	38.385000	0.374160
	38.390000	0.264566
	38.395000	0.242003
	38.400000	0.351597
	38.405000	0.367714
	38.410000	0.261343
	38.415000	0.245226
	38.420000	0.358044
	38.425000	0.367714
	38.430000	0.251673
	38.435000	0.238779
	38.440000	0.351597
	38.445000	0.367714
	38.450000	0.261343
	38.455000	0.242003
	38.460000	0.351597
	38.465000	0.364490
	38.470000	0.251673
	38.475000	0.245226
	38.480000	0.351597
	38.485000	0.374160
	38.490000	0.264566
	38.495000	0.242003
	38.500000	0.351597
	38.505000	0.370937
	38.510000	0.254896
	38.515000	0.238779
	38.520000	0.351597
	38.525000	0.367714
	38.530000	0.251673
	38.535000	0.235556
	38.540000	0.348374
	38.545000	0.367714
	38.550000	0.258119
	38.555000	0.242003
	38.560000	0.358044
	38.565000	0.370937
	38.570000	0.258119
	38.575000	0.245226
	38.580000	0.364490
	38.585000	0.380607
	38.590000	0.264566
	38.595000	0.264566
	38.600000	0.374160
	38.605000	0.393501
	38.610000	0.287130
	38.615000	0.280683
	38.620000	0.403171
	38.625000	0.419287
	38.630000	0.316140
	38.635000	0.312917
	38.640000	0.432181
	38.645000	0.448298
	38.650000	0.345150
	38.655000	0.335480
	38.660000	0.451521
	38.665000	0.474085
	38.670000	0.364490
	38.675000	0.358044
	38.680000	0.480531
	38.685000	0.493425
	38.690000	0.387054
	38.695000	0.377384
	38.700000	0.496648
	38.705000	0.509541
	38.710000	0.403171
	38.715000	0.393501
	38.720000	0.506318
	38.725000	0.525658
	38.730000	0.416064
	38.735000	0.409617
	38.740000	0.512765
	38.745000	0.538552
	38.750000	0.438628
	38.755000	0.425734
	38.760000	0.548222
	38.765000	0.574009
	38.770000	0.467638
	38.775000	0.464414
	38.780000	0.567562
	38.785000	0.603019
	38.790000	0.499871
	38.795000	0.493425
	38.800000	0.606242
	38.805000	0.625582
	38.810000	0.528882
	38.815000	0.525658
	38.820000	0.632029
	38.825000	0.654593
	38.830000	0.551445
	38.835000	0.551445
	38.840000	0.657816
	38.845000	0.670709
	38.850000	0.570785
	38.855000	0.564339
	38.860000	0.670709
	38.865000	0.686826
	38.870000	0.583679
	38.875000	0.574009
	38.880000	0.680379
	38.885000	0.693273
	38.890000	0.593349
	38.895000	0.577232
	38.900000	0.680379
	38.905000	0.696496
	38.910000	0.590125
	38.915000	0.583679
	38.920000	0.677156
	38.925000	0.690050
	38.930000	0.580455
	38.935000	0.570785
	38.940000	0.673933
	38.945000	0.683603
	38.950000	0.580455
	38.955000	0.570785
	38.960000	0.667486
	38.965000	0.683603
	38.970000	0.567562
	38.975000	0.561115
	38.980000	0.661039
	38.985000	0.670709
	38.990000	0.561115
	38.995000	0.548222
	39.000000	0.648146
	39.005000	0.657816
	39.010000	0.544998
	39.015000	0.535328
	39.020000	0.635252
	39.025000	0.644923
	39.030000	0.535328
	39.035000	0.519212
	39.040000	0.628806
	39.045000	0.632029
	39.050000	0.525658
	39.055000	0.515988
	39.060000	0.615912
	39.065000	0.632029
	39.070000	0.519212
	39.075000	0.509541
	39.080000	0.615912
	39.085000	0.615912
	39.090000	0.512765
	39.095000	0.493425
	39.100000	0.596572
	39.105000	0.606242
	39.110000	0.493425
	39.115000	0.480531
	39.120000	0.590125
	39.125000	0.586902
	39.130000	0.490201
	39.135000	0.474085
	39.140000	0.580455
	39.145000	0.583679
	39.150000	0.474085
	39.155000	0.464414
	39.160000	0.567562
	39.165000	0.567562
	39.170000	0.464414
	39.175000	0.451521
	39.180000	0.548222
	39.185000	0.564339
	39.190000	0.451521
	39.195000	0.441851
	39.200000	0.544998
	39.205000	0.548222
	39.210000	0.441851
	39.215000	0.441851
	39.220000	0.538552
	39.225000	0.544998
	39.230000	0.441851
	39.235000	0.432181
	39.240000	0.538552
	39.245000	0.544998
	39.250000	0.432181
	39.255000	0.432181
	39.260000	0.528882
	39.265000	0.538552
	39.270000	0.432181
	39.275000	0.425734
	39.280000	0.525658
	39.285000	0.528882
	39.290000	0.422511
	39.295000	0.416064
	39.300000	0.515988
	39.305000	0.528882
	39.310000	0.422511
	39.315000	0.409617
	39.320000	0.509541
	39.325000	0.519212
	39.330000	0.419287
	39.335000	0.416064
	39.340000	0.519212
	39.345000	0.522435
	39.350000	0.416064
	39.355000	0.419287
	39.360000	0.519212
	39.365000	0.522435
	39.370000	0.419287
	39.375000	0.416064
	39.380000	0.522435
	39.385000	0.522435
	39.390000	0.412841
	39.395000	0.409617
	39.400000	0.506318
	39.405000	0.512765
	39.410000	0.406394
	39.415000	0.390277
	39.420000	0.493425
	39.425000	0.493425
	39.430000	0.377384
	39.435000	0.370937
	39.440000	0.467638
	39.445000	0.464414
	39.450000	0.348374
	39.455000	0.338703
	39.460000	0.432181
	39.465000	0.428957
	39.470000	0.322587
	39.475000	0.309693
	39.480000	0.396724
	39.485000	0.399947
	39.490000	0.287130
	39.495000	0.277460
	39.500000	0.374160
	39.505000	0.374160
	39.510000	0.258119
	39.515000	0.248449
	39.520000	0.348374
	39.525000	0.351597
	39.530000	0.238779
	39.535000	0.232333
	39.540000	0.335480
	39.545000	0.338703
	39.550000	0.225886
	39.555000	0.216216
	39.560000	0.325810
	39.565000	0.322587
	39.570000	0.219439
	39.575000	0.209769
	39.580000	0.319363
	39.585000	0.325810
	39.590000	0.206546
	39.595000	0.206546
	39.600000	0.312917
	39.605000	0.312917
	39.610000	0.206546
	39.615000	0.200099
	39.620000	0.312917
	39.625000	0.306470
	39.630000	0.200099
	39.635000	0.196876
	39.640000	0.306470
	39.645000	0.306470
	39.650000	0.203322
	39.655000	0.193652
	39.660000	0.303247
	39.665000	0.306470
	39.670000	0.200099
	39.675000	0.193652
	39.680000	0.303247
	39.685000	0.306470
	39.690000	0.193652
	39.695000	0.196876
	39.700000	0.303247
	39.705000	0.306470
	39.710000	0.187206
	39.715000	0.193652
	39.720000	0.303247
	39.725000	0.303247
	39.730000	0.196876
	39.735000	0.193652
	39.740000	0.303247
	39.745000	0.300023
	39.750000	0.187206
	39.755000	0.193652
	39.760000	0.300023
	39.765000	0.300023
	39.770000	0.193652
	39.775000	0.190429
	39.780000	0.300023
	39.785000	0.300023
	39.790000	0.193652
	39.795000	0.187206
	39.800000	0.296800
	39.805000	0.293576
	39.810000	0.190429
	39.815000	0.183982
	39.820000	0.300023
	39.825000	0.293576
	39.830000	0.187206
	39.835000	0.187206
	39.840000	0.300023
	39.845000	0.296800
	39.850000	0.187206
	39.855000	0.193652
	39.860000	0.293576
	39.865000	0.296800
	39.870000	0.190429
	39.875000	0.187206
	39.880000	0.296800
	39.885000	0.293576
	39.890000	0.183982
	39.895000	0.187206
	39.900000	0.296800
	39.905000	0.290353
	39.910000	0.183982
	39.915000	0.183982
	39.920000	0.300023
	39.925000	0.296800
	39.930000	0.183982
	39.935000	0.187206
	39.940000	0.296800
	39.945000	0.293576
	39.950000	0.187206
	39.955000	0.190429
	39.960000	0.293576
	39.965000	0.300023
	39.970000	0.187206
	39.975000	0.187206
	39.980000	0.300023
	39.985000	0.300023
	39.990000	0.187206
	39.995000	0.190429
	40.000000	0.303247
	40.005000	0.300023
	40.010000	0.196876
	40.015000	0.193652
	40.020000	0.306470
	40.025000	0.303247
	40.030000	0.190429
	40.035000	0.190429
	40.040000	0.306470
	40.045000	0.300023
	40.050000	0.193652
	40.055000	0.196876
	40.060000	0.309693
	40.065000	0.309693
	40.070000	0.196876
	40.075000	0.200099
	40.080000	0.309693
	40.085000	0.309693
	40.090000	0.200099
	40.095000	0.200099
	40.100000	0.309693
	40.105000	0.316140
	40.110000	0.200099
	40.115000	0.206546
	40.120000	0.319363
	40.125000	0.316140
	40.130000	0.200099
	40.135000	0.206546
	40.140000	0.312917
	40.145000	0.316140
	40.150000	0.203322
	40.155000	0.212992
	40.160000	0.312917
	40.165000	0.319363
	40.170000	0.203322
	40.175000	0.206546
	40.180000	0.316140
	40.185000	0.319363
	40.190000	0.206546
	40.195000	0.206546
	40.200000	0.316140
	40.205000	0.309693
	40.210000	0.203322
	40.215000	0.209769
	40.220000	0.319363
	40.225000	0.309693
	40.230000	0.200099
	40.235000	0.212992
	40.240000	0.325810
	40.245000	0.316140
	40.250000	0.206546
	40.255000	0.212992
	40.260000	0.322587
	40.265000	0.322587
	40.270000	0.206546
	40.275000	0.216216
	40.280000	0.316140
	40.285000	0.329033
	40.290000	0.212992
	40.295000	0.216216
	40.300000	0.329033
	40.305000	0.319363
	40.310000	0.206546
	40.315000	0.216216
	40.320000	0.325810
	40.325000	0.325810
	40.330000	0.216216
	40.335000	0.222663
	40.340000	0.325810
	40.345000	0.329033
	40.350000	0.212992
	40.355000	0.216216
	40.360000	0.329033
	40.365000	0.329033
	40.370000	0.209769
	40.375000	0.222663
	40.380000	0.329033
	40.385000	0.329033
	40.390000	0.219439
	40.395000	0.222663
	40.400000	0.335480
	40.405000	0.329033
	40.410000	0.212992
	40.415000	0.222663
	40.420000	0.332257
	40.425000	0.319363
	40.430000	0.219439
	40.435000	0.225886
	40.440000	0.335480
	40.445000	0.329033
	40.450000	0.216216
	40.455000	0.225886
	40.460000	0.335480
	40.465000	0.329033
	40.470000	0.216216
	40.475000	0.222663
	40.480000	0.335480
	40.485000	0.325810
	40.490000	0.222663
	40.495000	0.225886
	40.500000	0.341927
	40.505000	0.332257
	40.510000	0.222663
	40.515000	0.225886
	40.520000	0.335480
	40.525000	0.329033
	40.530000	0.216216
	40.535000	0.232333
	40.540000	0.338703
	40.545000	0.332257
	40.550000	0.222663
	40.555000	0.219439
	40.560000	0.341927
	40.565000	0.332257
	40.570000	0.219439
	40.575000	0.235556
	40.580000	0.338703
	40.585000	0.329033
	40.590000	0.222663
	40.595000	0.225886
	40.600000	0.345150
	40.605000	0.329033
	40.610000	0.212992
	40.615000	0.232333
	40.620000	0.341927
	40.625000	0.335480
	40.630000	0.232333
	40.635000	0.232333
	40.640000	0.341927
	40.645000	0.335480
	40.650000	0.225886
	40.655000	0.229109
	40.660000	0.341927
	40.665000	0.335480
	40.670000	0.225886
	40.675000	0.235556
	40.680000	0.341927
	40.685000	0.335480
	40.690000	0.216216
	40.695000	0.229109
	40.700000	0.341927
	40.705000	0.335480
	40.710000	0.219439
	40.715000	0.232333
	40.720000	0.338703
	40.725000	0.329033
	40.730000	0.219439
	40.735000	0.229109
	40.740000	0.345150
	40.745000	0.335480
	40.750000	0.225886
	40.755000	0.235556
	40.760000	0.345150
	40.765000	0.329033
	40.770000	0.225886
	40.775000	0.235556
	40.780000	0.345150
	40.785000	0.335480
	40.790000	0.219439
	40.795000	0.242003
	40.800000	0.341927
	40.805000	0.332257
	40.810000	0.222663
	40.815000	0.235556
	40.820000	0.341927
	40.825000	0.332257
	40.830000	0.219439
	40.835000	0.235556
	40.840000	0.341927
	40.845000	0.335480
	40.850000	0.225886
	40.855000	0.242003
	40.860000	0.345150
	40.865000	0.332257
	40.870000	0.219439
	40.875000	0.232333
	40.880000	0.341927
	40.885000	0.332257
	40.890000	0.212992
	40.895000	0.232333
	40.900000	0.338703
	40.905000	0.335480
	40.910000	0.225886
	40.915000	0.235556
	40.920000	0.348374
	40.925000	0.332257
	40.930000	0.219439
	40.935000	0.235556
	40.940000	0.351597
	40.945000	0.335480
	40.950000	0.225886
	40.955000	0.232333
	40.960000	0.345150
	40.965000	0.332257
	40.970000	0.219439
	40.975000	0.232333
	40.980000	0.345150
	40.985000	0.332257
	40.990000	0.216216
	40.995000	0.242003
	41.000000	0.341927
	41.005000	0.341927
	41.010000	0.222663
	41.015000	0.238779
	41.020000	0.348374
	41.025000	0.332257
	41.030000	0.225886
	41.035000	0.238779
	41.040000	0.341927
	41.045000	0.338703
	41.050000	0.225886
	41.055000	0.235556
	41.060000	0.351597
	41.065000	0.332257
	41.070000	0.225886
	41.075000	0.238779
	41.080000	0.348374
	41.085000	0.329033
	41.090000	0.222663
	41.095000	0.242003
	41.100000	0.348374
	41.105000	0.332257
	41.110000	0.225886
	41.115000	0.238779
	41.120000	0.341927
	41.125000	0.338703
	41.130000	0.225886
	41.135000	0.235556
	41.140000	0.345150
	41.145000	0.332257
	41.150000	0.225886
	41.155000	0.238779
	41.160000	0.345150
	41.165000	0.335480
	41.170000	0.219439
	41.175000	0.245226
	41.180000	0.345150
	41.185000	0.325810
	41.190000	0.225886
	41.195000	0.238779
	41.200000	0.348374
	41.205000	0.329033
	41.210000	0.219439
	41.215000	0.235556
	41.220000	0.348374
	41.225000	0.329033
	41.230000	0.225886
	41.235000	0.238779
	41.240000	0.354820
	41.245000	0.332257
	41.250000	0.222663
	41.255000	0.238779
	41.260000	0.354820
	41.265000	0.332257
	41.270000	0.225886
	41.275000	0.245226
	41.280000	0.348374
	41.285000	0.332257
	41.290000	0.222663
	41.295000	0.242003
	41.300000	0.351597
	41.305000	0.329033
	41.310000	0.225886
	41.315000	0.238779
	41.320000	0.348374
	41.325000	0.329033
	41.330000	0.225886
	41.335000	0.235556
	41.340000	0.348374
	41.345000	0.329033
	41.350000	0.225886
	41.355000	0.245226
	41.360000	0.345150
	41.365000	0.329033
	41.370000	0.219439
	41.375000	0.245226
	41.380000	0.351597
	41.385000	0.335480
	41.390000	0.219439
	41.395000	0.245226
	41.400000	0.348374
	41.405000	0.325810
	41.410000	0.225886
	41.415000	0.242003
	41.420000	0.341927
	41.425000	0.325810
	41.430000	0.222663
	41.435000	0.245226
	41.440000	0.348374
	41.445000	0.329033
	41.450000	0.219439
	41.455000	0.242003
	41.460000	0.348374
	41.465000	0.329033
	41.470000	0.232333
	41.475000	0.238779
	41.480000	0.345150
	41.485000	0.329033
	41.490000	0.219439
	41.495000	0.242003
	41.500000	0.345150
	41.505000	0.325810
	41.510000	0.225886
	41.515000	0.238779
	41.520000	0.351597
	41.525000	0.332257
	41.530000	0.219439
	41.535000	0.242003
	41.540000	0.348374
	41.545000	0.325810
	41.550000	0.216216
	41.555000	0.238779
	41.560000	0.341927
	41.565000	0.332257
	41.570000	0.219439
	41.575000	0.238779
	41.580000	0.348374
	41.585000	0.332257
	41.590000	0.216216
	41.595000	0.242003
	41.600000	0.351597
	41.605000	0.329033
	41.610000	0.219439
	41.615000	0.248449
	41.620000	0.341927
	41.625000	0.322587
	41.630000	0.222663
	41.635000	0.238779
	41.640000	0.345150
	41.645000	0.332257
	41.650000	0.219439
	41.655000	0.242003
	41.660000	0.348374
	41.665000	0.329033
	41.670000	0.219439
	41.675000	0.245226
	41.680000	0.348374
	41.685000	0.329033
	41.690000	0.219439
	41.695000	0.235556
	41.700000	0.341927
	41.705000	0.329033
	41.710000	0.216216
	41.715000	0.245226
	41.720000	0.348374
	41.725000	0.322587
	41.730000	0.216216
	41.735000	0.242003
	41.740000	0.348374
	41.745000	0.322587
	41.750000	0.216216
	41.755000	0.238779
	41.760000	0.345150
	41.765000	0.329033
	41.770000	0.222663
	41.775000	0.238779
	41.780000	0.348374
	41.785000	0.329033
	41.790000	0.216216
	41.795000	0.238779
	41.800000	0.345150
	41.805000	0.325810
	41.810000	0.216216
	41.815000	0.242003
	41.820000	0.348374
	41.825000	0.325810
	41.830000	0.216216
	41.835000	0.248449
	41.840000	0.348374
	41.845000	0.319363
	41.850000	0.216216
	41.855000	0.242003
	41.860000	0.348374
	41.865000	0.325810
	41.870000	0.209769
	41.875000	0.242003
	41.880000	0.341927
	41.885000	0.329033
	41.890000	0.216216
	41.895000	0.242003
	41.900000	0.348374
	41.905000	0.325810
	41.910000	0.219439
	41.915000	0.238779
	41.920000	0.345150
	41.925000	0.329033
	41.930000	0.212992
	41.935000	0.238779
	41.940000	0.348374
	41.945000	0.322587
	41.950000	0.216216
	41.955000	0.245226
	41.960000	0.351597
	41.965000	0.325810
	41.970000	0.216216
	41.975000	0.245226
	41.980000	0.354820
	41.985000	0.322587
	41.990000	0.209769
	41.995000	0.242003
	42.000000	0.351597
	42.005000	0.319363
	42.010000	0.216216
	42.015000	0.242003
	42.020000	0.351597
	42.025000	0.322587
	42.030000	0.216216
	42.035000	0.238779
	42.040000	0.348374
	42.045000	0.329033
	42.050000	0.216216
	42.055000	0.242003
	42.060000	0.348374
	42.065000	0.322587
	42.070000	0.216216
	42.075000	0.238779
	42.080000	0.351597
	42.085000	0.332257
	42.090000	0.216216
	42.095000	0.235556
	42.100000	0.348374
	42.105000	0.329033
	42.110000	0.216216
	42.115000	0.238779
	42.120000	0.348374
	42.125000	0.325810
	42.130000	0.219439
	42.135000	0.238779
	42.140000	0.351597
	42.145000	0.325810
	42.150000	0.216216
	42.155000	0.235556
	42.160000	0.351597
	42.165000	0.322587
	42.170000	0.212992
	42.175000	0.235556
	42.180000	0.351597
	42.185000	0.322587
	42.190000	0.212992
	42.195000	0.238779
	42.200000	0.345150
	42.205000	0.325810
	42.210000	0.212992
	42.215000	0.245226
	42.220000	0.348374
	42.225000	0.322587
	42.230000	0.216216
	42.235000	0.238779
	42.240000	0.348374
	42.245000	0.325810
	42.250000	0.212992
	42.255000	0.242003
	42.260000	0.348374
	42.265000	0.325810
	42.270000	0.209769
	42.275000	0.238779
	42.280000	0.345150
	42.285000	0.325810
	42.290000	0.209769
	42.295000	0.242003
	42.300000	0.351597
	42.305000	0.322587
	42.310000	0.209769
	42.315000	0.242003
	42.320000	0.348374
	42.325000	0.329033
	42.330000	0.212992
	42.335000	0.245226
	42.340000	0.348374
	42.345000	0.322587
	42.350000	0.216216
	42.355000	0.245226
	42.360000	0.351597
	42.365000	0.335480
	42.370000	0.219439
	42.375000	0.242003
	42.380000	0.348374
	42.385000	0.325810
	42.390000	0.216216
	42.395000	0.242003
	42.400000	0.345150
	42.405000	0.325810
	42.410000	0.216216
	42.415000	0.238779
	42.420000	0.348374
	42.425000	0.329033
	42.430000	0.219439
	42.435000	0.245226
	42.440000	0.345150
	42.445000	0.325810
	42.450000	0.219439
	42.455000	0.242003
	42.460000	0.354820
	42.465000	0.325810
	42.470000	0.212992
	42.475000	0.235556
	42.480000	0.348374
	42.485000	0.319363
	42.490000	0.216216
	42.495000	0.248449
	42.500000	0.351597
	42.505000	0.329033
	42.510000	0.219439
	42.515000	0.242003
	42.520000	0.348374
	42.525000	0.329033
	42.530000	0.212992
	42.535000	0.248449
	42.540000	0.354820
	42.545000	0.322587
	42.550000	0.219439
	42.555000	0.245226
	42.560000	0.351597
	42.565000	0.325810
	42.570000	0.219439
	42.575000	0.242003
	42.580000	0.354820
	42.585000	0.322587
	42.590000	0.222663
	42.595000	0.245226
	42.600000	0.354820
	42.605000	0.325810
	42.610000	0.216216
	42.615000	0.242003
	42.620000	0.351597
	42.625000	0.329033
	42.630000	0.219439
	42.635000	0.245226
	42.640000	0.354820
	42.645000	0.325810
	42.650000	0.219439
	42.655000	0.242003
	42.660000	0.354820
	42.665000	0.322587
	42.670000	0.222663
	42.675000	0.248449
	42.680000	0.354820
	42.685000	0.325810
	42.690000	0.219439
	42.695000	0.248449
	42.700000	0.354820
	42.705000	0.322587
	42.710000	0.212992
	42.715000	0.238779
	42.720000	0.351597
	42.725000	0.329033
	42.730000	0.219439
	42.735000	0.242003
	42.740000	0.354820
	42.745000	0.329033
	42.750000	0.216216
	42.755000	0.248449
	42.760000	0.354820
	42.765000	0.325810
	42.770000	0.212992
	42.775000	0.245226
	42.780000	0.354820
	42.785000	0.322587
	42.790000	0.216216
	42.795000	0.248449
	42.800000	0.345150
	42.805000	0.322587
	42.810000	0.219439
	42.815000	0.238779
	42.820000	0.354820
	42.825000	0.322587
	42.830000	0.216216
	42.835000	0.248449
	42.840000	0.348374
	42.845000	0.322587
	42.850000	0.219439
	42.855000	0.248449
	42.860000	0.354820
	42.865000	0.325810
	42.870000	0.216216
	42.875000	0.245226
	42.880000	0.351597
	42.885000	0.325810
	42.890000	0.212992
	42.895000	0.245226
	42.900000	0.348374
	42.905000	0.322587
	42.910000	0.212992
	42.915000	0.242003
	42.920000	0.348374
	42.925000	0.316140
	42.930000	0.216216
	42.935000	0.248449
	42.940000	0.354820
	42.945000	0.322587
	42.950000	0.219439
	42.955000	0.242003
	42.960000	0.354820
	42.965000	0.322587
	42.970000	0.216216
	42.975000	0.245226
	42.980000	0.348374
	42.985000	0.325810
	42.990000	0.212992
	42.995000	0.245226
	43.000000	0.351597
	43.005000	0.322587
	43.010000	0.219439
	43.015000	0.248449
	43.020000	0.351597
	43.025000	0.329033
	43.030000	0.212992
	43.035000	0.245226
	43.040000	0.351597
	43.045000	0.329033
	43.050000	0.212992
	43.055000	0.242003
	43.060000	0.345150
	43.065000	0.319363
	43.070000	0.216216
	43.075000	0.242003
	43.080000	0.354820
	43.085000	0.316140
	43.090000	0.212992
	43.095000	0.245226
	43.100000	0.358044
	43.105000	0.329033
	43.110000	0.219439
	43.115000	0.245226
	43.120000	0.361267
	43.125000	0.316140
	43.130000	0.212992
	43.135000	0.245226
	43.140000	0.354820
	43.145000	0.322587
	43.150000	0.219439
	43.155000	0.242003
	43.160000	0.358044
	43.165000	0.322587
	43.170000	0.216216
	43.175000	0.242003
	43.180000	0.351597
	43.185000	0.319363
	43.190000	0.216216
	43.195000	0.248449
	43.200000	0.351597
	43.205000	0.322587
	43.210000	0.219439
	43.215000	0.245226
	43.220000	0.354820
	43.225000	0.319363
	43.230000	0.212992
	43.235000	0.245226
	43.240000	0.351597
	43.245000	0.319363
	43.250000	0.212992
	43.255000	0.238779
	43.260000	0.348374
	43.265000	0.325810
	43.270000	0.216216
	43.275000	0.245226
	43.280000	0.348374
	43.285000	0.319363
	43.290000	0.216216
	43.295000	0.245226
	43.300000	0.345150
	43.305000	0.325810
	43.310000	0.212992
	43.315000	0.245226
	43.320000	0.354820
	43.325000	0.322587
	43.330000	0.212992
	43.335000	0.242003
	43.340000	0.351597
	43.345000	0.319363
	43.350000	0.216216
	43.355000	0.248449
	43.360000	0.348374
