2024/7/23 	 9:56:17 
 This file comes from Vt only measurement 	 1.000000E-1 
 Voltage Sensitivity 	 0.000000E+0 
 Sampling rate 	 200 
 Number of samples per channel 	 -1 
 No filter from Labview 	 	 	 
 	 
 ***End_of_Header*** 
 	 Time 	  Voltage 	 Filtered Voltage 	 
	0.000000	0.764545
	0.005000	0.771122
	0.010000	0.823742
	0.015000	0.820453
	0.020000	0.767833
	0.025000	0.771122
	0.030000	0.823742
	0.035000	0.820453
	0.040000	0.767833
	0.045000	0.767833
	0.050000	0.830319
	0.055000	0.827030
	0.060000	0.771122
	0.065000	0.777700
	0.070000	0.833608
	0.075000	0.827030
	0.080000	0.767833
	0.085000	0.777700
	0.090000	0.833608
	0.095000	0.823742
	0.100000	0.771122
	0.105000	0.780988
	0.110000	0.833608
	0.115000	0.827030
	0.120000	0.767833
	0.125000	0.777700
	0.130000	0.833608
	0.135000	0.830319
	0.140000	0.777700
	0.145000	0.780988
	0.150000	0.833608
	0.155000	0.833608
	0.160000	0.774411
	0.165000	0.780988
	0.170000	0.836897
	0.175000	0.833608
	0.180000	0.777700
	0.185000	0.784277
	0.190000	0.833608
	0.195000	0.830319
	0.200000	0.774411
	0.205000	0.784277
	0.210000	0.836897
	0.215000	0.833608
	0.220000	0.777700
	0.225000	0.787566
	0.230000	0.836897
	0.235000	0.833608
	0.240000	0.780988
	0.245000	0.784277
	0.250000	0.836897
	0.255000	0.836897
	0.260000	0.777700
	0.265000	0.784277
	0.270000	0.840185
	0.275000	0.833608
	0.280000	0.784277
	0.285000	0.787566
	0.290000	0.840185
	0.295000	0.836897
	0.300000	0.780988
	0.305000	0.784277
	0.310000	0.840185
	0.315000	0.836897
	0.320000	0.780988
	0.325000	0.784277
	0.330000	0.833608
	0.335000	0.836897
	0.340000	0.780988
	0.345000	0.784277
	0.350000	0.840185
	0.355000	0.836897
	0.360000	0.787566
	0.365000	0.780988
	0.370000	0.836897
	0.375000	0.843474
	0.380000	0.784277
	0.385000	0.784277
	0.390000	0.843474
	0.395000	0.840185
	0.400000	0.784277
	0.405000	0.784277
	0.410000	0.836897
	0.415000	0.840185
	0.420000	0.780988
	0.425000	0.787566
	0.430000	0.840185
	0.435000	0.833608
	0.440000	0.787566
	0.445000	0.787566
	0.450000	0.836897
	0.455000	0.836897
	0.460000	0.787566
	0.465000	0.784277
	0.470000	0.840185
	0.475000	0.840185
	0.480000	0.784277
	0.485000	0.784277
	0.490000	0.836897
	0.495000	0.840185
	0.500000	0.787566
	0.505000	0.790854
	0.510000	0.840185
	0.515000	0.840185
	0.520000	0.787566
	0.525000	0.787566
	0.530000	0.840185
	0.535000	0.843474
	0.540000	0.787566
	0.545000	0.787566
	0.550000	0.840185
	0.555000	0.843474
	0.560000	0.787566
	0.565000	0.790854
	0.570000	0.840185
	0.575000	0.840185
	0.580000	0.784277
	0.585000	0.787566
	0.590000	0.843474
	0.595000	0.840185
	0.600000	0.784277
	0.605000	0.787566
	0.610000	0.843474
	0.615000	0.836897
	0.620000	0.790854
	0.625000	0.784277
	0.630000	0.840185
	0.635000	0.843474
	0.640000	0.790854
	0.645000	0.790854
	0.650000	0.843474
	0.655000	0.846763
	0.660000	0.790854
	0.665000	0.790854
	0.670000	0.843474
	0.675000	0.850051
	0.680000	0.790854
	0.685000	0.790854
	0.690000	0.846763
	0.695000	0.843474
	0.700000	0.797432
	0.705000	0.790854
	0.710000	0.846763
	0.715000	0.843474
	0.720000	0.790854
	0.725000	0.790854
	0.730000	0.846763
	0.735000	0.843474
	0.740000	0.794143
	0.745000	0.794143
	0.750000	0.846763
	0.755000	0.850051
	0.760000	0.794143
	0.765000	0.794143
	0.770000	0.843474
	0.775000	0.846763
	0.780000	0.797432
	0.785000	0.797432
	0.790000	0.843474
	0.795000	0.846763
	0.800000	0.794143
	0.805000	0.790854
	0.810000	0.843474
	0.815000	0.850051
	0.820000	0.790854
	0.825000	0.794143
	0.830000	0.843474
	0.835000	0.853340
	0.840000	0.794143
	0.845000	0.790854
	0.850000	0.843474
	0.855000	0.843474
	0.860000	0.794143
	0.865000	0.787566
	0.870000	0.843474
	0.875000	0.850051
	0.880000	0.794143
	0.885000	0.787566
	0.890000	0.840185
	0.895000	0.846763
	0.900000	0.794143
	0.905000	0.790854
	0.910000	0.843474
	0.915000	0.846763
	0.920000	0.794143
	0.925000	0.787566
	0.930000	0.840185
	0.935000	0.843474
	0.940000	0.790854
	0.945000	0.790854
	0.950000	0.846763
	0.955000	0.843474
	0.960000	0.790854
	0.965000	0.790854
	0.970000	0.843474
	0.975000	0.846763
	0.980000	0.790854
	0.985000	0.787566
	0.990000	0.843474
	0.995000	0.843474
	1.000000	0.790854
	1.005000	0.787566
	1.010000	0.840185
	1.015000	0.850051
	1.020000	0.790854
	1.025000	0.787566
	1.030000	0.840185
	1.035000	0.843474
	1.040000	0.794143
	1.045000	0.790854
	1.050000	0.843474
	1.055000	0.846763
	1.060000	0.787566
	1.065000	0.787566
	1.070000	0.843474
	1.075000	0.846763
	1.080000	0.787566
	1.085000	0.790854
	1.090000	0.843474
	1.095000	0.850051
	1.100000	0.790854
	1.105000	0.790854
	1.110000	0.840185
	1.115000	0.850051
	1.120000	0.790854
	1.125000	0.790854
	1.130000	0.843474
	1.135000	0.846763
	1.140000	0.794143
	1.145000	0.787566
	1.150000	0.836897
	1.155000	0.846763
	1.160000	0.794143
	1.165000	0.784277
	1.170000	0.840185
	1.175000	0.843474
	1.180000	0.794143
	1.185000	0.780988
	1.190000	0.840185
	1.195000	0.846763
	1.200000	0.794143
	1.205000	0.784277
	1.210000	0.836897
	1.215000	0.846763
	1.220000	0.790854
	1.225000	0.784277
	1.230000	0.840185
	1.235000	0.850051
	1.240000	0.790854
	1.245000	0.780988
	1.250000	0.836897
	1.255000	0.843474
	1.260000	0.787566
	1.265000	0.787566
	1.270000	0.836897
	1.275000	0.846763
	1.280000	0.790854
	1.285000	0.780988
	1.290000	0.840185
	1.295000	0.843474
	1.300000	0.787566
	1.305000	0.784277
	1.310000	0.840185
	1.315000	0.843474
	1.320000	0.787566
	1.325000	0.784277
	1.330000	0.833608
	1.335000	0.843474
	1.340000	0.790854
	1.345000	0.780988
	1.350000	0.840185
	1.355000	0.843474
	1.360000	0.794143
	1.365000	0.787566
	1.370000	0.836897
	1.375000	0.840185
	1.380000	0.790854
	1.385000	0.780988
	1.390000	0.836897
	1.395000	0.846763
	1.400000	0.790854
	1.405000	0.784277
	1.410000	0.836897
	1.415000	0.850051
	1.420000	0.790854
	1.425000	0.780988
	1.430000	0.836897
	1.435000	0.843474
	1.440000	0.794143
	1.445000	0.780988
	1.450000	0.833608
	1.455000	0.846763
	1.460000	0.790854
	1.465000	0.780988
	1.470000	0.836897
	1.475000	0.846763
	1.480000	0.790854
	1.485000	0.780988
	1.490000	0.840185
	1.495000	0.846763
	1.500000	0.790854
	1.505000	0.780988
	1.510000	0.836897
	1.515000	0.850051
	1.520000	0.794143
	1.525000	0.780988
	1.530000	0.836897
	1.535000	0.843474
	1.540000	0.790854
	1.545000	0.784277
	1.550000	0.843474
	1.555000	0.850051
	1.560000	0.800721
	1.565000	0.787566
	1.570000	0.836897
	1.575000	0.846763
	1.580000	0.790854
	1.585000	0.784277
	1.590000	0.836897
	1.595000	0.846763
	1.600000	0.794143
	1.605000	0.780988
	1.610000	0.833608
	1.615000	0.846763
	1.620000	0.794143
	1.625000	0.777700
	1.630000	0.833608
	1.635000	0.843474
	1.640000	0.794143
	1.645000	0.780988
	1.650000	0.836897
	1.655000	0.843474
	1.660000	0.794143
	1.665000	0.784277
	1.670000	0.836897
	1.675000	0.846763
	1.680000	0.787566
	1.685000	0.777700
	1.690000	0.830319
	1.695000	0.850051
	1.700000	0.790854
	1.705000	0.780988
	1.710000	0.827030
	1.715000	0.846763
	1.720000	0.790854
	1.725000	0.780988
	1.730000	0.833608
	1.735000	0.846763
	1.740000	0.790854
	1.745000	0.780988
	1.750000	0.833608
	1.755000	0.846763
	1.760000	0.790854
	1.765000	0.780988
	1.770000	0.833608
	1.775000	0.846763
	1.780000	0.794143
	1.785000	0.784277
	1.790000	0.833608
	1.795000	0.843474
	1.800000	0.794143
	1.805000	0.780988
	1.810000	0.833608
	1.815000	0.850051
	1.820000	0.790854
	1.825000	0.784277
	1.830000	0.836897
	1.835000	0.853340
	1.840000	0.797432
	1.845000	0.784277
	1.850000	0.836897
	1.855000	0.853340
	1.860000	0.797432
	1.865000	0.784277
	1.870000	0.833608
	1.875000	0.853340
	1.880000	0.790854
	1.885000	0.784277
	1.890000	0.833608
	1.895000	0.846763
	1.900000	0.790854
	1.905000	0.777700
	1.910000	0.833608
	1.915000	0.846763
	1.920000	0.794143
	1.925000	0.774411
	1.930000	0.833608
	1.935000	0.843474
	1.940000	0.794143
	1.945000	0.784277
	1.950000	0.833608
	1.955000	0.850051
	1.960000	0.797432
	1.965000	0.784277
	1.970000	0.827030
	1.975000	0.850051
	1.980000	0.797432
	1.985000	0.780988
	1.990000	0.833608
	1.995000	0.850051
	2.000000	0.797432
	2.005000	0.780988
	2.010000	0.833608
	2.015000	0.846763
	2.020000	0.797432
	2.025000	0.784277
	2.030000	0.836897
	2.035000	0.853340
	2.040000	0.800721
	2.045000	0.787566
	2.050000	0.840185
	2.055000	0.853340
	2.060000	0.800721
	2.065000	0.790854
	2.070000	0.836897
	2.075000	0.856629
	2.080000	0.804009
	2.085000	0.790854
	2.090000	0.840185
	2.095000	0.853340
	2.100000	0.800721
	2.105000	0.790854
	2.110000	0.840185
	2.115000	0.856629
	2.120000	0.800721
	2.125000	0.790854
	2.130000	0.840185
	2.135000	0.859918
	2.140000	0.804009
	2.145000	0.790854
	2.150000	0.843474
	2.155000	0.856629
	2.160000	0.807298
	2.165000	0.790854
	2.170000	0.840185
	2.175000	0.859918
	2.180000	0.807298
	2.185000	0.790854
	2.190000	0.843474
	2.195000	0.853340
	2.200000	0.807298
	2.205000	0.794143
	2.210000	0.843474
	2.215000	0.859918
	2.220000	0.810587
	2.225000	0.794143
	2.230000	0.843474
	2.235000	0.863206
	2.240000	0.810587
	2.245000	0.794143
	2.250000	0.843474
	2.255000	0.863206
	2.260000	0.810587
	2.265000	0.794143
	2.270000	0.850051
	2.275000	0.863206
	2.280000	0.813876
	2.285000	0.797432
	2.290000	0.846763
	2.295000	0.863206
	2.300000	0.817164
	2.305000	0.797432
	2.310000	0.850051
	2.315000	0.869784
	2.320000	0.813876
	2.325000	0.800721
	2.330000	0.853340
	2.335000	0.869784
	2.340000	0.817164
	2.345000	0.800721
	2.350000	0.846763
	2.355000	0.863206
	2.360000	0.807298
	2.365000	0.794143
	2.370000	0.843474
	2.375000	0.863206
	2.380000	0.807298
	2.385000	0.790854
	2.390000	0.840185
	2.395000	0.866495
	2.400000	0.807298
	2.405000	0.790854
	2.410000	0.843474
	2.415000	0.859918
	2.420000	0.807298
	2.425000	0.787566
	2.430000	0.843474
	2.435000	0.863206
	2.440000	0.804009
	2.445000	0.784277
	2.450000	0.827030
	2.455000	0.850051
	2.460000	0.790854
	2.465000	0.771122
	2.470000	0.820453
	2.475000	0.836897
	2.480000	0.774411
	2.485000	0.751390
	2.490000	0.807298
	2.495000	0.827030
	2.500000	0.771122
	2.505000	0.754679
	2.510000	0.804009
	2.515000	0.830319
	2.520000	0.774411
	2.525000	0.751390
	2.530000	0.807298
	2.535000	0.827030
	2.540000	0.774411
	2.545000	0.754679
	2.550000	0.807298
	2.555000	0.827030
	2.560000	0.774411
	2.565000	0.757967
	2.570000	0.807298
	2.575000	0.830319
	2.580000	0.774411
	2.585000	0.754679
	2.590000	0.807298
	2.595000	0.827030
	2.600000	0.774411
	2.605000	0.757967
	2.610000	0.813876
	2.615000	0.833608
	2.620000	0.777700
	2.625000	0.757967
	2.630000	0.807298
	2.635000	0.830319
	2.640000	0.777700
	2.645000	0.757967
	2.650000	0.807298
	2.655000	0.830319
	2.660000	0.777700
	2.665000	0.751390
	2.670000	0.807298
	2.675000	0.827030
	2.680000	0.774411
	2.685000	0.754679
	2.690000	0.807298
	2.695000	0.833608
	2.700000	0.774411
	2.705000	0.757967
	2.710000	0.807298
	2.715000	0.827030
	2.720000	0.774411
	2.725000	0.754679
	2.730000	0.807298
	2.735000	0.833608
	2.740000	0.777700
	2.745000	0.754679
	2.750000	0.813876
	2.755000	0.833608
	2.760000	0.777700
	2.765000	0.754679
	2.770000	0.810587
	2.775000	0.830319
	2.780000	0.780988
	2.785000	0.761256
	2.790000	0.813876
	2.795000	0.840185
	2.800000	0.784277
	2.805000	0.767833
	2.810000	0.820453
	2.815000	0.846763
	2.820000	0.794143
	2.825000	0.774411
	2.830000	0.830319
	2.835000	0.853340
	2.840000	0.804009
	2.845000	0.787566
	2.850000	0.846763
	2.855000	0.866495
	2.860000	0.820453
	2.865000	0.797432
	2.870000	0.846763
	2.875000	0.873073
	2.880000	0.817164
	2.885000	0.800721
	2.890000	0.843474
	2.895000	0.866495
	2.900000	0.817164
	2.905000	0.787566
	2.910000	0.830319
	2.915000	0.859918
	2.920000	0.800721
	2.925000	0.774411
	2.930000	0.817164
	2.935000	0.830319
	2.940000	0.774411
	2.945000	0.741524
	2.950000	0.787566
	2.955000	0.813876
	2.960000	0.754679
	2.965000	0.734946
	2.970000	0.780988
	2.975000	0.804009
	2.980000	0.754679
	2.985000	0.731657
	2.990000	0.784277
	2.995000	0.807298
	3.000000	0.754679
	3.005000	0.734946
	3.010000	0.780988
	3.015000	0.810587
	3.020000	0.761256
	3.025000	0.738235
	3.030000	0.790854
	3.035000	0.810587
	3.040000	0.761256
	3.045000	0.738235
	3.050000	0.790854
	3.055000	0.813876
	3.060000	0.764545
	3.065000	0.738235
	3.070000	0.794143
	3.075000	0.813876
	3.080000	0.764545
	3.085000	0.744812
	3.090000	0.797432
	3.095000	0.817164
	3.100000	0.767833
	3.105000	0.741524
	3.110000	0.794143
	3.115000	0.820453
	3.120000	0.767833
	3.125000	0.738235
	3.130000	0.794143
	3.135000	0.820453
	3.140000	0.771122
	3.145000	0.748101
	3.150000	0.797432
	3.155000	0.813876
	3.160000	0.774411
	3.165000	0.751390
	3.170000	0.800721
	3.175000	0.820453
	3.180000	0.774411
	3.185000	0.748101
	3.190000	0.790854
	3.195000	0.823742
	3.200000	0.774411
	3.205000	0.754679
	3.210000	0.794143
	3.215000	0.827030
	3.220000	0.777700
	3.225000	0.751390
	3.230000	0.800721
	3.235000	0.823742
	3.240000	0.777700
	3.245000	0.754679
	3.250000	0.804009
	3.255000	0.827030
	3.260000	0.777700
	3.265000	0.751390
	3.270000	0.804009
	3.275000	0.830319
	3.280000	0.780988
	3.285000	0.754679
	3.290000	0.804009
	3.295000	0.830319
	3.300000	0.777700
	3.305000	0.754679
	3.310000	0.800721
	3.315000	0.827030
	3.320000	0.780988
	3.325000	0.757967
	3.330000	0.804009
	3.335000	0.827030
	3.340000	0.780988
	3.345000	0.757967
	3.350000	0.807298
	3.355000	0.830319
	3.360000	0.784277
	3.365000	0.757967
	3.370000	0.807298
	3.375000	0.830319
	3.380000	0.787566
	3.385000	0.761256
	3.390000	0.807298
	3.395000	0.836897
	3.400000	0.787566
	3.405000	0.761256
	3.410000	0.807298
	3.415000	0.833608
	3.420000	0.790854
	3.425000	0.764545
	3.430000	0.810587
	3.435000	0.836897
	3.440000	0.787566
	3.445000	0.764545
	3.450000	0.807298
	3.455000	0.836897
	3.460000	0.787566
	3.465000	0.764545
	3.470000	0.807298
	3.475000	0.833608
	3.480000	0.784277
	3.485000	0.761256
	3.490000	0.810587
	3.495000	0.836897
	3.500000	0.787566
	3.505000	0.764545
	3.510000	0.807298
	3.515000	0.836897
	3.520000	0.790854
	3.525000	0.764545
	3.530000	0.807298
	3.535000	0.836897
	3.540000	0.784277
	3.545000	0.761256
	3.550000	0.810587
	3.555000	0.833608
	3.560000	0.794143
	3.565000	0.764545
	3.570000	0.810587
	3.575000	0.836897
	3.580000	0.794143
	3.585000	0.767833
	3.590000	0.810587
	3.595000	0.836897
	3.600000	0.787566
	3.605000	0.761256
	3.610000	0.810587
	3.615000	0.836897
	3.620000	0.790854
	3.625000	0.761256
	3.630000	0.807298
	3.635000	0.836897
	3.640000	0.794143
	3.645000	0.764545
	3.650000	0.807298
	3.655000	0.840185
	3.660000	0.790854
	3.665000	0.764545
	3.670000	0.807298
	3.675000	0.843474
	3.680000	0.787566
	3.685000	0.767833
	3.690000	0.807298
	3.695000	0.836897
	3.700000	0.794143
	3.705000	0.761256
	3.710000	0.810587
	3.715000	0.836897
	3.720000	0.794143
	3.725000	0.767833
	3.730000	0.807298
	3.735000	0.840185
	3.740000	0.794143
	3.745000	0.761256
	3.750000	0.807298
	3.755000	0.836897
	3.760000	0.790854
	3.765000	0.764545
	3.770000	0.813876
	3.775000	0.840185
	3.780000	0.794143
	3.785000	0.764545
	3.790000	0.813876
	3.795000	0.836897
	3.800000	0.790854
	3.805000	0.761256
	3.810000	0.807298
	3.815000	0.840185
	3.820000	0.790854
	3.825000	0.764545
	3.830000	0.807298
	3.835000	0.840185
	3.840000	0.794143
	3.845000	0.764545
	3.850000	0.804009
	3.855000	0.840185
	3.860000	0.794143
	3.865000	0.761256
	3.870000	0.807298
	3.875000	0.840185
	3.880000	0.794143
	3.885000	0.764545
	3.890000	0.807298
	3.895000	0.840185
	3.900000	0.794143
	3.905000	0.767833
	3.910000	0.807298
	3.915000	0.840185
	3.920000	0.790854
	3.925000	0.767833
	3.930000	0.807298
	3.935000	0.836897
	3.940000	0.797432
	3.945000	0.764545
	3.950000	0.810587
	3.955000	0.840185
	3.960000	0.794143
	3.965000	0.767833
	3.970000	0.804009
	3.975000	0.840185
	3.980000	0.790854
	3.985000	0.767833
	3.990000	0.804009
	3.995000	0.836897
	4.000000	0.794143
	4.005000	0.767833
	4.010000	0.807298
	4.015000	0.836897
	4.020000	0.800721
	4.025000	0.764545
	4.030000	0.807298
	4.035000	0.840185
	4.040000	0.794143
	4.045000	0.767833
	4.050000	0.807298
	4.055000	0.840185
	4.060000	0.790854
	4.065000	0.767833
	4.070000	0.807298
	4.075000	0.846763
	4.080000	0.794143
	4.085000	0.767833
	4.090000	0.813876
	4.095000	0.840185
	4.100000	0.800721
	4.105000	0.767833
	4.110000	0.813876
	4.115000	0.836897
	4.120000	0.804009
	4.125000	0.767833
	4.130000	0.813876
	4.135000	0.840185
	4.140000	0.797432
	4.145000	0.771122
	4.150000	0.807298
	4.155000	0.840185
	4.160000	0.800721
	4.165000	0.764545
	4.170000	0.810587
	4.175000	0.840185
	4.180000	0.800721
	4.185000	0.767833
	4.190000	0.807298
	4.195000	0.843474
	4.200000	0.797432
	4.205000	0.764545
	4.210000	0.807298
	4.215000	0.836897
	4.220000	0.794143
	4.225000	0.761256
	4.230000	0.807298
	4.235000	0.836897
	4.240000	0.794143
	4.245000	0.767833
	4.250000	0.810587
	4.255000	0.843474
	4.260000	0.800721
	4.265000	0.761256
	4.270000	0.810587
	4.275000	0.840185
	4.280000	0.797432
	4.285000	0.761256
	4.290000	0.810587
	4.295000	0.843474
	4.300000	0.797432
	4.305000	0.767833
	4.310000	0.807298
	4.315000	0.843474
	4.320000	0.800721
	4.325000	0.761256
	4.330000	0.804009
	4.335000	0.840185
	4.340000	0.797432
	4.345000	0.767833
	4.350000	0.807298
	4.355000	0.840185
	4.360000	0.794143
	4.365000	0.761256
	4.370000	0.810587
	4.375000	0.846763
	4.380000	0.800721
	4.385000	0.761256
	4.390000	0.810587
	4.395000	0.840185
	4.400000	0.797432
	4.405000	0.767833
	4.410000	0.810587
	4.415000	0.840185
	4.420000	0.800721
	4.425000	0.764545
	4.430000	0.800721
	4.435000	0.840185
	4.440000	0.800721
	4.445000	0.764545
	4.450000	0.807298
	4.455000	0.840185
	4.460000	0.804009
	4.465000	0.764545
	4.470000	0.807298
	4.475000	0.843474
	4.480000	0.804009
	4.485000	0.764545
	4.490000	0.807298
	4.495000	0.843474
	4.500000	0.800721
	4.505000	0.767833
	4.510000	0.810587
	4.515000	0.846763
	4.520000	0.800721
	4.525000	0.771122
	4.530000	0.813876
	4.535000	0.853340
	4.540000	0.800721
	4.545000	0.771122
	4.550000	0.810587
	4.555000	0.843474
	4.560000	0.804009
	4.565000	0.767833
	4.570000	0.807298
	4.575000	0.846763
	4.580000	0.807298
	4.585000	0.774411
	4.590000	0.810587
	4.595000	0.850051
	4.600000	0.807298
	4.605000	0.774411
	4.610000	0.813876
	4.615000	0.846763
	4.620000	0.807298
	4.625000	0.774411
	4.630000	0.817164
	4.635000	0.853340
	4.640000	0.813876
	4.645000	0.774411
	4.650000	0.817164
	4.655000	0.846763
	4.660000	0.810587
	4.665000	0.777700
	4.670000	0.813876
	4.675000	0.853340
	4.680000	0.813876
	4.685000	0.777700
	4.690000	0.817164
	4.695000	0.853340
	4.700000	0.807298
	4.705000	0.777700
	4.710000	0.813876
	4.715000	0.846763
	4.720000	0.813876
	4.725000	0.777700
	4.730000	0.813876
	4.735000	0.846763
	4.740000	0.810587
	4.745000	0.777700
	4.750000	0.817164
	4.755000	0.853340
	4.760000	0.813876
	4.765000	0.777700
	4.770000	0.820453
	4.775000	0.856629
	4.780000	0.817164
	4.785000	0.780988
	4.790000	0.820453
	4.795000	0.859918
	4.800000	0.817164
	4.805000	0.780988
	4.810000	0.823742
	4.815000	0.859918
	4.820000	0.817164
	4.825000	0.780988
	4.830000	0.827030
	4.835000	0.859918
	4.840000	0.823742
	4.845000	0.784277
	4.850000	0.830319
	4.855000	0.863206
	4.860000	0.820453
	4.865000	0.780988
	4.870000	0.827030
	4.875000	0.866495
	4.880000	0.817164
	4.885000	0.784277
	4.890000	0.827030
	4.895000	0.863206
	4.900000	0.823742
	4.905000	0.784277
	4.910000	0.823742
	4.915000	0.863206
	4.920000	0.823742
	4.925000	0.787566
	4.930000	0.823742
	4.935000	0.863206
	4.940000	0.820453
	4.945000	0.784277
	4.950000	0.830319
	4.955000	0.859918
	4.960000	0.817164
	4.965000	0.774411
	4.970000	0.807298
	4.975000	0.843474
	4.980000	0.800721
	4.985000	0.764545
	4.990000	0.800721
	4.995000	0.840185
	5.000000	0.797432
	5.005000	0.761256
	5.010000	0.800721
	5.015000	0.843474
	5.020000	0.800721
	5.025000	0.767833
	5.030000	0.807298
	5.035000	0.846763
	5.040000	0.807298
	5.045000	0.767833
	5.050000	0.804009
	5.055000	0.846763
	5.060000	0.807298
	5.065000	0.767833
	5.070000	0.813876
	5.075000	0.853340
	5.080000	0.813876
	5.085000	0.774411
	5.090000	0.810587
	5.095000	0.850051
	5.100000	0.813876
	5.105000	0.774411
	5.110000	0.810587
	5.115000	0.853340
	5.120000	0.813876
	5.125000	0.771122
	5.130000	0.807298
	5.135000	0.853340
	5.140000	0.807298
	5.145000	0.771122
	5.150000	0.807298
	5.155000	0.850051
	5.160000	0.804009
	5.165000	0.764545
	5.170000	0.800721
	5.175000	0.846763
	5.180000	0.804009
	5.185000	0.767833
	5.190000	0.800721
	5.195000	0.846763
	5.200000	0.800721
	5.205000	0.757967
	5.210000	0.800721
	5.215000	0.840185
	5.220000	0.800721
	5.225000	0.757967
	5.230000	0.800721
	5.235000	0.843474
	5.240000	0.800721
	5.245000	0.757967
	5.250000	0.794143
	5.255000	0.840185
	5.260000	0.800721
	5.265000	0.754679
	5.270000	0.794143
	5.275000	0.830319
	5.280000	0.797432
	5.285000	0.751390
	5.290000	0.794143
	5.295000	0.836897
	5.300000	0.794143
	5.305000	0.751390
	5.310000	0.790854
	5.315000	0.830319
	5.320000	0.794143
	5.325000	0.748101
	5.330000	0.787566
	5.335000	0.830319
	5.340000	0.794143
	5.345000	0.748101
	5.350000	0.787566
	5.355000	0.833608
	5.360000	0.794143
	5.365000	0.748101
	5.370000	0.787566
	5.375000	0.830319
	5.380000	0.790854
	5.385000	0.748101
	5.390000	0.787566
	5.395000	0.833608
	5.400000	0.797432
	5.405000	0.754679
	5.410000	0.790854
	5.415000	0.840185
	5.420000	0.800721
	5.425000	0.764545
	5.430000	0.800721
	5.435000	0.846763
	5.440000	0.807298
	5.445000	0.774411
	5.450000	0.810587
	5.455000	0.856629
	5.460000	0.823742
	5.465000	0.774411
	5.470000	0.813876
	5.475000	0.863206
	5.480000	0.823742
	5.485000	0.777700
	5.490000	0.817164
	5.495000	0.853340
	5.500000	0.813876
	5.505000	0.767833
	5.510000	0.804009
	5.515000	0.853340
	5.520000	0.807298
	5.525000	0.764545
	5.530000	0.800721
	5.535000	0.843474
	5.540000	0.800721
	5.545000	0.757967
	5.550000	0.777700
	5.555000	0.813876
	5.560000	0.764545
	5.565000	0.715214
	5.570000	0.744812
	5.575000	0.784277
	5.580000	0.751390
	5.585000	0.702059
	5.590000	0.734946
	5.595000	0.777700
	5.600000	0.741524
	5.605000	0.702059
	5.610000	0.731657
	5.615000	0.780988
	5.620000	0.748101
	5.625000	0.705348
	5.630000	0.741524
	5.635000	0.784277
	5.640000	0.748101
	5.645000	0.708636
	5.650000	0.748101
	5.655000	0.787566
	5.660000	0.757967
	5.665000	0.715214
	5.670000	0.748101
	5.675000	0.794143
	5.680000	0.757967
	5.685000	0.715214
	5.690000	0.754679
	5.695000	0.800721
	5.700000	0.764545
	5.705000	0.725080
	5.710000	0.754679
	5.715000	0.804009
	5.720000	0.761256
	5.725000	0.725080
	5.730000	0.761256
	5.735000	0.804009
	5.740000	0.767833
	5.745000	0.728369
	5.750000	0.761256
	5.755000	0.807298
	5.760000	0.774411
	5.765000	0.731657
	5.770000	0.764545
	5.775000	0.807298
	5.780000	0.774411
	5.785000	0.731657
	5.790000	0.764545
	5.795000	0.813876
	5.800000	0.777700
	5.805000	0.734946
	5.810000	0.774411
	5.815000	0.817164
	5.820000	0.784277
	5.825000	0.741524
	5.830000	0.777700
	5.835000	0.820453
	5.840000	0.790854
	5.845000	0.751390
	5.850000	0.777700
	5.855000	0.827030
	5.860000	0.790854
	5.865000	0.751390
	5.870000	0.790854
	5.875000	0.830319
	5.880000	0.797432
	5.885000	0.751390
	5.890000	0.790854
	5.895000	0.827030
	5.900000	0.797432
	5.905000	0.757967
	5.910000	0.790854
	5.915000	0.833608
	5.920000	0.800721
	5.925000	0.761256
	5.930000	0.790854
	5.935000	0.840185
	5.940000	0.800721
	5.945000	0.764545
	5.950000	0.797432
	5.955000	0.836897
	5.960000	0.810587
	5.965000	0.764545
	5.970000	0.794143
	5.975000	0.840185
	5.980000	0.807298
	5.985000	0.767833
	5.990000	0.794143
	5.995000	0.840185
	6.000000	0.807298
	6.005000	0.767833
	6.010000	0.800721
	6.015000	0.843474
	6.020000	0.820453
	6.025000	0.764545
	6.030000	0.804009
	6.035000	0.846763
	6.040000	0.813876
	6.045000	0.771122
	6.050000	0.804009
	6.055000	0.843474
	6.060000	0.813876
	6.065000	0.771122
	6.070000	0.804009
	6.075000	0.850051
	6.080000	0.817164
	6.085000	0.767833
	6.090000	0.810587
	6.095000	0.850051
	6.100000	0.817164
	6.105000	0.774411
	6.110000	0.807298
	6.115000	0.853340
	6.120000	0.813876
	6.125000	0.774411
	6.130000	0.804009
	6.135000	0.853340
	6.140000	0.813876
	6.145000	0.774411
	6.150000	0.807298
	6.155000	0.853340
	6.160000	0.820453
	6.165000	0.777700
	6.170000	0.800721
	6.175000	0.853340
	6.180000	0.820453
	6.185000	0.774411
	6.190000	0.813876
	6.195000	0.846763
	6.200000	0.820453
	6.205000	0.777700
	6.210000	0.807298
	6.215000	0.846763
	6.220000	0.820453
	6.225000	0.774411
	6.230000	0.807298
	6.235000	0.846763
	6.240000	0.817164
	6.245000	0.771122
	6.250000	0.807298
	6.255000	0.846763
	6.260000	0.817164
	6.265000	0.774411
	6.270000	0.813876
	6.275000	0.850051
	6.280000	0.820453
	6.285000	0.774411
	6.290000	0.807298
	6.295000	0.856629
	6.300000	0.823742
	6.305000	0.777700
	6.310000	0.810587
	6.315000	0.853340
	6.320000	0.817164
	6.325000	0.777700
	6.330000	0.810587
	6.335000	0.853340
	6.340000	0.820453
	6.345000	0.780988
	6.350000	0.804009
	6.355000	0.853340
	6.360000	0.823742
	6.365000	0.780988
	6.370000	0.800721
	6.375000	0.853340
	6.380000	0.817164
	6.385000	0.777700
	6.390000	0.807298
	6.395000	0.846763
	6.400000	0.823742
	6.405000	0.774411
	6.410000	0.804009
	6.415000	0.850051
	6.420000	0.820453
	6.425000	0.784277
	6.430000	0.804009
	6.435000	0.853340
	6.440000	0.820453
	6.445000	0.780988
	6.450000	0.810587
	6.455000	0.856629
	6.460000	0.827030
	6.465000	0.780988
	6.470000	0.807298
	6.475000	0.856629
	6.480000	0.827030
	6.485000	0.780988
	6.490000	0.810587
	6.495000	0.853340
	6.500000	0.827030
	6.505000	0.784277
	6.510000	0.810587
	6.515000	0.853340
	6.520000	0.823742
	6.525000	0.780988
	6.530000	0.804009
	6.535000	0.856629
	6.540000	0.823742
	6.545000	0.777700
	6.550000	0.810587
	6.555000	0.856629
	6.560000	0.827030
	6.565000	0.780988
	6.570000	0.807298
	6.575000	0.856629
	6.580000	0.827030
	6.585000	0.784277
	6.590000	0.807298
	6.595000	0.853340
	6.600000	0.830319
	6.605000	0.780988
	6.610000	0.807298
	6.615000	0.856629
	6.620000	0.830319
	6.625000	0.784277
	6.630000	0.810587
	6.635000	0.856629
	6.640000	0.830319
	6.645000	0.784277
	6.650000	0.807298
	6.655000	0.856629
	6.660000	0.827030
	6.665000	0.780988
	6.670000	0.810587
	6.675000	0.853340
	6.680000	0.830319
	6.685000	0.784277
	6.690000	0.810587
	6.695000	0.856629
	6.700000	0.833608
	6.705000	0.784277
	6.710000	0.810587
	6.715000	0.859918
	6.720000	0.833608
	6.725000	0.784277
	6.730000	0.813876
	6.735000	0.856629
	6.740000	0.827030
	6.745000	0.784277
	6.750000	0.813876
	6.755000	0.856629
	6.760000	0.830319
	6.765000	0.784277
	6.770000	0.810587
	6.775000	0.859918
	6.780000	0.830319
	6.785000	0.784277
	6.790000	0.807298
	6.795000	0.859918
	6.800000	0.833608
	6.805000	0.790854
	6.810000	0.813876
	6.815000	0.863206
	6.820000	0.833608
	6.825000	0.787566
	6.830000	0.810587
	6.835000	0.859918
	6.840000	0.836897
	6.845000	0.787566
	6.850000	0.813876
	6.855000	0.859918
	6.860000	0.830319
	6.865000	0.780988
	6.870000	0.813876
	6.875000	0.856629
	6.880000	0.836897
	6.885000	0.784277
	6.890000	0.813876
	6.895000	0.856629
	6.900000	0.830319
	6.905000	0.784277
	6.910000	0.810587
	6.915000	0.859918
	6.920000	0.833608
	6.925000	0.790854
	6.930000	0.810587
	6.935000	0.859918
	6.940000	0.833608
	6.945000	0.787566
	6.950000	0.807298
	6.955000	0.856629
	6.960000	0.833608
	6.965000	0.784277
	6.970000	0.807298
	6.975000	0.856629
	6.980000	0.827030
	6.985000	0.787566
	6.990000	0.807298
	6.995000	0.853340
	7.000000	0.830319
	7.005000	0.784277
	7.010000	0.810587
	7.015000	0.863206
	7.020000	0.833608
	7.025000	0.787566
	7.030000	0.810587
	7.035000	0.863206
	7.040000	0.836897
	7.045000	0.787566
	7.050000	0.813876
	7.055000	0.859918
	7.060000	0.836897
	7.065000	0.787566
	7.070000	0.813876
	7.075000	0.859918
	7.080000	0.840185
	7.085000	0.787566
	7.090000	0.813876
	7.095000	0.863206
	7.100000	0.836897
	7.105000	0.787566
	7.110000	0.813876
	7.115000	0.866495
	7.120000	0.843474
	7.125000	0.790854
	7.130000	0.817164
	7.135000	0.863206
	7.140000	0.840185
	7.145000	0.790854
	7.150000	0.810587
	7.155000	0.859918
	7.160000	0.836897
	7.165000	0.794143
	7.170000	0.813876
	7.175000	0.866495
	7.180000	0.843474
	7.185000	0.794143
	7.190000	0.817164
	7.195000	0.863206
	7.200000	0.836897
	7.205000	0.794143
	7.210000	0.813876
	7.215000	0.863206
	7.220000	0.843474
	7.225000	0.790854
	7.230000	0.813876
	7.235000	0.859918
	7.240000	0.840185
	7.245000	0.790854
	7.250000	0.813876
	7.255000	0.859918
	7.260000	0.840185
	7.265000	0.787566
	7.270000	0.810587
	7.275000	0.856629
	7.280000	0.840185
	7.285000	0.787566
	7.290000	0.810587
	7.295000	0.859918
	7.300000	0.833608
	7.305000	0.794143
	7.310000	0.810587
	7.315000	0.859918
	7.320000	0.836897
	7.325000	0.790854
	7.330000	0.813876
	7.335000	0.863206
	7.340000	0.836897
	7.345000	0.787566
	7.350000	0.813876
	7.355000	0.859918
	7.360000	0.840185
	7.365000	0.790854
	7.370000	0.810587
	7.375000	0.866495
	7.380000	0.840185
	7.385000	0.787566
	7.390000	0.807298
	7.395000	0.859918
	7.400000	0.840185
	7.405000	0.787566
	7.410000	0.807298
	7.415000	0.859918
	7.420000	0.840185
	7.425000	0.784277
	7.430000	0.807298
	7.435000	0.859918
	7.440000	0.840185
	7.445000	0.787566
	7.450000	0.813876
	7.455000	0.859918
	7.460000	0.843474
	7.465000	0.790854
	7.470000	0.813876
	7.475000	0.859918
	7.480000	0.840185
	7.485000	0.790854
	7.490000	0.810587
	7.495000	0.863206
	7.500000	0.840185
	7.505000	0.790854
	7.510000	0.810587
	7.515000	0.859918
	7.520000	0.843474
	7.525000	0.790854
	7.530000	0.810587
	7.535000	0.866495
	7.540000	0.843474
	7.545000	0.790854
	7.550000	0.807298
	7.555000	0.863206
	7.560000	0.843474
	7.565000	0.794143
	7.570000	0.813876
	7.575000	0.859918
	7.580000	0.840185
	7.585000	0.790854
	7.590000	0.810587
	7.595000	0.863206
	7.600000	0.836897
	7.605000	0.787566
	7.610000	0.807298
	7.615000	0.863206
	7.620000	0.840185
	7.625000	0.790854
	7.630000	0.807298
	7.635000	0.856629
	7.640000	0.843474
	7.645000	0.790854
	7.650000	0.810587
	7.655000	0.859918
	7.660000	0.836897
	7.665000	0.787566
	7.670000	0.804009
	7.675000	0.856629
	7.680000	0.840185
	7.685000	0.787566
	7.690000	0.807298
	7.695000	0.859918
	7.700000	0.836897
	7.705000	0.787566
	7.710000	0.807298
	7.715000	0.856629
	7.720000	0.840185
	7.725000	0.787566
	7.730000	0.810587
	7.735000	0.859918
	7.740000	0.840185
	7.745000	0.787566
	7.750000	0.804009
	7.755000	0.856629
	7.760000	0.843474
	7.765000	0.790854
	7.770000	0.807298
	7.775000	0.856629
	7.780000	0.836897
	7.785000	0.790854
	7.790000	0.807298
	7.795000	0.856629
	7.800000	0.843474
	7.805000	0.790854
	7.810000	0.807298
	7.815000	0.856629
	7.820000	0.836897
	7.825000	0.790854
	7.830000	0.804009
	7.835000	0.859918
	7.840000	0.840185
	7.845000	0.784277
	7.850000	0.807298
	7.855000	0.856629
	7.860000	0.843474
	7.865000	0.784277
	7.870000	0.807298
	7.875000	0.856629
	7.880000	0.840185
	7.885000	0.790854
	7.890000	0.804009
	7.895000	0.863206
	7.900000	0.840185
	7.905000	0.787566
	7.910000	0.807298
	7.915000	0.856629
	7.920000	0.840185
	7.925000	0.787566
	7.930000	0.807298
	7.935000	0.859918
	7.940000	0.840185
	7.945000	0.787566
	7.950000	0.807298
	7.955000	0.856629
	7.960000	0.840185
	7.965000	0.784277
	7.970000	0.807298
	7.975000	0.856629
	7.980000	0.843474
	7.985000	0.790854
	7.990000	0.807298
	7.995000	0.856629
	8.000000	0.843474
	8.005000	0.787566
	8.010000	0.807298
	8.015000	0.856629
	8.020000	0.843474
	8.025000	0.787566
	8.030000	0.804009
	8.035000	0.859918
	8.040000	0.846763
	8.045000	0.790854
	8.050000	0.810587
	8.055000	0.853340
	8.060000	0.840185
	8.065000	0.790854
	8.070000	0.807298
	8.075000	0.859918
	8.080000	0.843474
	8.085000	0.794143
	8.090000	0.807298
	8.095000	0.856629
	8.100000	0.836897
	8.105000	0.787566
	8.110000	0.800721
	8.115000	0.856629
	8.120000	0.840185
	8.125000	0.794143
	8.130000	0.807298
	8.135000	0.863206
	8.140000	0.843474
	8.145000	0.787566
	8.150000	0.804009
	8.155000	0.859918
	8.160000	0.840185
	8.165000	0.790854
	8.170000	0.807298
	8.175000	0.859918
	8.180000	0.843474
	8.185000	0.790854
	8.190000	0.807298
	8.195000	0.859918
	8.200000	0.843474
	8.205000	0.794143
	8.210000	0.804009
	8.215000	0.859918
	8.220000	0.840185
	8.225000	0.790854
	8.230000	0.807298
	8.235000	0.863206
	8.240000	0.846763
	8.245000	0.790854
	8.250000	0.804009
	8.255000	0.863206
	8.260000	0.843474
	8.265000	0.790854
	8.270000	0.804009
	8.275000	0.859918
	8.280000	0.843474
	8.285000	0.787566
	8.290000	0.810587
	8.295000	0.859918
	8.300000	0.840185
	8.305000	0.787566
	8.310000	0.804009
	8.315000	0.859918
	8.320000	0.846763
	8.325000	0.800721
	8.330000	0.804009
	8.335000	0.856629
	8.340000	0.843474
	8.345000	0.790854
	8.350000	0.804009
	8.355000	0.856629
	8.360000	0.843474
	8.365000	0.790854
	8.370000	0.804009
	8.375000	0.859918
	8.380000	0.843474
	8.385000	0.794143
	8.390000	0.800721
	8.395000	0.859918
	8.400000	0.846763
	8.405000	0.787566
	8.410000	0.804009
	8.415000	0.859918
	8.420000	0.843474
	8.425000	0.790854
	8.430000	0.807298
	8.435000	0.853340
	8.440000	0.843474
	8.445000	0.790854
	8.450000	0.800721
	8.455000	0.859918
	8.460000	0.850051
	8.465000	0.790854
	8.470000	0.804009
	8.475000	0.859918
	8.480000	0.846763
	8.485000	0.787566
	8.490000	0.804009
	8.495000	0.856629
	8.500000	0.846763
	8.505000	0.797432
	8.510000	0.810587
	8.515000	0.859918
	8.520000	0.846763
	8.525000	0.790854
	8.530000	0.807298
	8.535000	0.856629
	8.540000	0.850051
	8.545000	0.794143
	8.550000	0.807298
	8.555000	0.856629
	8.560000	0.843474
	8.565000	0.794143
	8.570000	0.804009
	8.575000	0.859918
	8.580000	0.846763
	8.585000	0.794143
	8.590000	0.800721
	8.595000	0.859918
	8.600000	0.843474
	8.605000	0.794143
	8.610000	0.804009
	8.615000	0.859918
	8.620000	0.850051
	8.625000	0.794143
	8.630000	0.810587
	8.635000	0.863206
	8.640000	0.843474
	8.645000	0.794143
	8.650000	0.807298
	8.655000	0.859918
	8.660000	0.850051
	8.665000	0.790854
	8.670000	0.807298
	8.675000	0.859918
	8.680000	0.846763
	8.685000	0.787566
	8.690000	0.804009
	8.695000	0.856629
	8.700000	0.853340
	8.705000	0.794143
	8.710000	0.807298
	8.715000	0.856629
	8.720000	0.846763
	8.725000	0.797432
	8.730000	0.804009
	8.735000	0.859918
	8.740000	0.846763
	8.745000	0.794143
	8.750000	0.804009
	8.755000	0.859918
	8.760000	0.853340
	8.765000	0.797432
	8.770000	0.807298
	8.775000	0.853340
	8.780000	0.846763
	8.785000	0.797432
	8.790000	0.804009
	8.795000	0.856629
	8.800000	0.843474
	8.805000	0.797432
	8.810000	0.800721
	8.815000	0.859918
	8.820000	0.846763
	8.825000	0.790854
	8.830000	0.800721
	8.835000	0.853340
	8.840000	0.846763
	8.845000	0.787566
	8.850000	0.800721
	8.855000	0.850051
	8.860000	0.843474
	8.865000	0.787566
	8.870000	0.800721
	8.875000	0.856629
	8.880000	0.843474
	8.885000	0.787566
	8.890000	0.800721
	8.895000	0.853340
	8.900000	0.846763
	8.905000	0.794143
	8.910000	0.804009
	8.915000	0.856629
	8.920000	0.853340
	8.925000	0.790854
	8.930000	0.804009
	8.935000	0.856629
	8.940000	0.846763
	8.945000	0.800721
	8.950000	0.804009
	8.955000	0.859918
	8.960000	0.850051
	8.965000	0.797432
	8.970000	0.804009
	8.975000	0.856629
	8.980000	0.846763
	8.985000	0.790854
	8.990000	0.807298
	8.995000	0.856629
	9.000000	0.846763
	9.005000	0.794143
	9.010000	0.804009
	9.015000	0.863206
	9.020000	0.843474
	9.025000	0.800721
	9.030000	0.804009
	9.035000	0.856629
	9.040000	0.853340
	9.045000	0.797432
	9.050000	0.807298
	9.055000	0.853340
	9.060000	0.853340
	9.065000	0.790854
	9.070000	0.804009
	9.075000	0.856629
	9.080000	0.853340
	9.085000	0.794143
	9.090000	0.804009
	9.095000	0.856629
	9.100000	0.853340
	9.105000	0.797432
	9.110000	0.804009
	9.115000	0.853340
	9.120000	0.853340
	9.125000	0.794143
	9.130000	0.804009
	9.135000	0.856629
	9.140000	0.853340
	9.145000	0.800721
	9.150000	0.804009
	9.155000	0.859918
	9.160000	0.853340
	9.165000	0.797432
	9.170000	0.804009
	9.175000	0.859918
	9.180000	0.856629
	9.185000	0.800721
	9.190000	0.804009
	9.195000	0.859918
	9.200000	0.846763
	9.205000	0.794143
	9.210000	0.807298
	9.215000	0.859918
	9.220000	0.856629
	9.225000	0.797432
	9.230000	0.804009
	9.235000	0.859918
	9.240000	0.853340
	9.245000	0.794143
	9.250000	0.797432
	9.255000	0.859918
	9.260000	0.853340
	9.265000	0.797432
	9.270000	0.800721
	9.275000	0.856629
	9.280000	0.853340
	9.285000	0.800721
	9.290000	0.800721
	9.295000	0.859918
	9.300000	0.853340
	9.305000	0.797432
	9.310000	0.810587
	9.315000	0.863206
	9.320000	0.850051
	9.325000	0.800721
	9.330000	0.804009
	9.335000	0.856629
	9.340000	0.853340
	9.345000	0.800721
	9.350000	0.807298
	9.355000	0.856629
	9.360000	0.856629
	9.365000	0.800721
	9.370000	0.807298
	9.375000	0.859918
	9.380000	0.853340
	9.385000	0.794143
	9.390000	0.800721
	9.395000	0.856629
	9.400000	0.853340
	9.405000	0.797432
	9.410000	0.804009
	9.415000	0.859918
	9.420000	0.853340
	9.425000	0.797432
	9.430000	0.800721
	9.435000	0.856629
	9.440000	0.850051
	9.445000	0.800721
	9.450000	0.800721
	9.455000	0.856629
	9.460000	0.850051
	9.465000	0.794143
	9.470000	0.800721
	9.475000	0.853340
	9.480000	0.856629
	9.485000	0.800721
	9.490000	0.804009
	9.495000	0.859918
	9.500000	0.853340
	9.505000	0.797432
	9.510000	0.807298
	9.515000	0.856629
	9.520000	0.856629
	9.525000	0.797432
	9.530000	0.804009
	9.535000	0.859918
	9.540000	0.859918
	9.545000	0.794143
	9.550000	0.804009
	9.555000	0.863206
	9.560000	0.856629
	9.565000	0.804009
	9.570000	0.807298
	9.575000	0.859918
	9.580000	0.856629
	9.585000	0.800721
	9.590000	0.800721
	9.595000	0.856629
	9.600000	0.853340
	9.605000	0.804009
	9.610000	0.804009
	9.615000	0.856629
	9.620000	0.853340
	9.625000	0.800721
	9.630000	0.807298
	9.635000	0.856629
	9.640000	0.853340
	9.645000	0.800721
	9.650000	0.804009
	9.655000	0.859918
	9.660000	0.856629
	9.665000	0.804009
	9.670000	0.800721
	9.675000	0.863206
	9.680000	0.853340
	9.685000	0.807298
	9.690000	0.804009
	9.695000	0.859918
	9.700000	0.853340
	9.705000	0.804009
	9.710000	0.807298
	9.715000	0.859918
	9.720000	0.856629
	9.725000	0.804009
	9.730000	0.800721
	9.735000	0.859918
	9.740000	0.859918
	9.745000	0.800721
	9.750000	0.804009
	9.755000	0.863206
	9.760000	0.856629
	9.765000	0.804009
	9.770000	0.807298
	9.775000	0.859918
	9.780000	0.859918
	9.785000	0.800721
	9.790000	0.807298
	9.795000	0.859918
	9.800000	0.856629
	9.805000	0.804009
	9.810000	0.804009
	9.815000	0.863206
	9.820000	0.863206
	9.825000	0.804009
	9.830000	0.804009
	9.835000	0.863206
	9.840000	0.859918
	9.845000	0.804009
	9.850000	0.804009
	9.855000	0.859918
	9.860000	0.859918
	9.865000	0.804009
	9.870000	0.807298
	9.875000	0.859918
	9.880000	0.859918
	9.885000	0.807298
	9.890000	0.810587
	9.895000	0.859918
	9.900000	0.859918
	9.905000	0.800721
	9.910000	0.804009
	9.915000	0.859918
	9.920000	0.863206
	9.925000	0.804009
	9.930000	0.800721
	9.935000	0.859918
	9.940000	0.859918
	9.945000	0.810587
	9.950000	0.807298
	9.955000	0.859918
	9.960000	0.863206
	9.965000	0.807298
	9.970000	0.810587
	9.975000	0.863206
	9.980000	0.859918
	9.985000	0.807298
	9.990000	0.810587
	9.995000	0.866495
	10.000000	0.863206
	10.005000	0.807298
	10.010000	0.807298
	10.015000	0.866495
	10.020000	0.859918
	10.025000	0.807298
	10.030000	0.804009
	10.035000	0.859918
	10.040000	0.863206
	10.045000	0.807298
	10.050000	0.813876
	10.055000	0.859918
	10.060000	0.863206
	10.065000	0.810587
	10.070000	0.813876
	10.075000	0.859918
	10.080000	0.859918
	10.085000	0.810587
	10.090000	0.804009
	10.095000	0.863206
	10.100000	0.866495
	10.105000	0.813876
	10.110000	0.813876
	10.115000	0.863206
	10.120000	0.863206
	10.125000	0.810587
	10.130000	0.810587
	10.135000	0.866495
	10.140000	0.863206
	10.145000	0.810587
	10.150000	0.804009
	10.155000	0.866495
	10.160000	0.866495
	10.165000	0.810587
	10.170000	0.807298
	10.175000	0.869784
	10.180000	0.866495
	10.185000	0.807298
	10.190000	0.810587
	10.195000	0.863206
	10.200000	0.873073
	10.205000	0.810587
	10.210000	0.810587
	10.215000	0.866495
	10.220000	0.866495
	10.225000	0.807298
	10.230000	0.807298
	10.235000	0.866495
	10.240000	0.869784
	10.245000	0.810587
	10.250000	0.804009
	10.255000	0.866495
	10.260000	0.866495
	10.265000	0.807298
	10.270000	0.804009
	10.275000	0.863206
	10.280000	0.863206
	10.285000	0.800721
	10.290000	0.807298
	10.295000	0.859918
	10.300000	0.859918
	10.305000	0.804009
	10.310000	0.800721
	10.315000	0.859918
	10.320000	0.853340
	10.325000	0.790854
	10.330000	0.787566
	10.335000	0.840185
	10.340000	0.836897
	10.345000	0.777700
	10.350000	0.777700
	10.355000	0.830319
	10.360000	0.836897
	10.365000	0.780988
	10.370000	0.774411
	10.375000	0.830319
	10.380000	0.830319
	10.385000	0.774411
	10.390000	0.774411
	10.395000	0.830319
	10.400000	0.836897
	10.405000	0.780988
	10.410000	0.774411
	10.415000	0.830319
	10.420000	0.836897
	10.425000	0.777700
	10.430000	0.777700
	10.435000	0.830319
	10.440000	0.840185
	10.445000	0.780988
	10.450000	0.780988
	10.455000	0.836897
	10.460000	0.843474
	10.465000	0.780988
	10.470000	0.777700
	10.475000	0.840185
	10.480000	0.840185
	10.485000	0.784277
	10.490000	0.780988
	10.495000	0.836897
	10.500000	0.846763
	10.505000	0.794143
	10.510000	0.784277
	10.515000	0.843474
	10.520000	0.843474
	10.525000	0.787566
	10.530000	0.784277
	10.535000	0.843474
	10.540000	0.846763
	10.545000	0.790854
	10.550000	0.787566
	10.555000	0.846763
	10.560000	0.846763
	10.565000	0.790854
	10.570000	0.787566
	10.575000	0.843474
	10.580000	0.850051
	10.585000	0.790854
	10.590000	0.790854
	10.595000	0.850051
	10.600000	0.853340
	10.605000	0.797432
	10.610000	0.797432
	10.615000	0.853340
	10.620000	0.853340
	10.625000	0.794143
	10.630000	0.790854
	10.635000	0.846763
	10.640000	0.853340
	10.645000	0.797432
	10.650000	0.794143
	10.655000	0.846763
	10.660000	0.853340
	10.665000	0.794143
	10.670000	0.790854
	10.675000	0.850051
	10.680000	0.850051
	10.685000	0.794143
	10.690000	0.790854
	10.695000	0.850051
	10.700000	0.853340
	10.705000	0.794143
	10.710000	0.794143
	10.715000	0.850051
	10.720000	0.859918
	10.725000	0.800721
	10.730000	0.794143
	10.735000	0.850051
	10.740000	0.856629
	10.745000	0.800721
	10.750000	0.794143
	10.755000	0.853340
	10.760000	0.856629
	10.765000	0.800721
	10.770000	0.787566
	10.775000	0.846763
	10.780000	0.856629
	10.785000	0.794143
	10.790000	0.790854
	10.795000	0.853340
	10.800000	0.856629
	10.805000	0.800721
	10.810000	0.787566
	10.815000	0.846763
	10.820000	0.853340
	10.825000	0.797432
	10.830000	0.787566
	10.835000	0.843474
	10.840000	0.850051
	10.845000	0.790854
	10.850000	0.790854
	10.855000	0.846763
	10.860000	0.853340
	10.865000	0.794143
	10.870000	0.787566
	10.875000	0.843474
	10.880000	0.859918
	10.885000	0.800721
	10.890000	0.790854
	10.895000	0.846763
	10.900000	0.863206
	10.905000	0.804009
	10.910000	0.807298
	10.915000	0.863206
	10.920000	0.873073
	10.925000	0.820453
	10.930000	0.810587
	10.935000	0.869784
	10.940000	0.882939
	10.945000	0.823742
	10.950000	0.820453
	10.955000	0.879650
	10.960000	0.886227
	10.965000	0.833608
	10.970000	0.823742
	10.975000	0.882939
	10.980000	0.889516
	10.985000	0.833608
	10.990000	0.830319
	10.995000	0.879650
	11.000000	0.882939
	11.005000	0.823742
	11.010000	0.820453
	11.015000	0.863206
	11.020000	0.866495
	11.025000	0.813876
	11.030000	0.797432
	11.035000	0.843474
	11.040000	0.843474
	11.045000	0.777700
	11.050000	0.767833
	11.055000	0.817164
	11.060000	0.823742
	11.065000	0.761256
	11.070000	0.754679
	11.075000	0.810587
	11.080000	0.817164
	11.085000	0.761256
	11.090000	0.751390
	11.095000	0.810587
	11.100000	0.820453
	11.105000	0.761256
	11.110000	0.761256
	11.115000	0.813876
	11.120000	0.817164
	11.125000	0.764545
	11.130000	0.761256
	11.135000	0.807298
	11.140000	0.823742
	11.145000	0.767833
	11.150000	0.764545
	11.155000	0.810587
	11.160000	0.820453
	11.165000	0.771122
	11.170000	0.761256
	11.175000	0.820453
	11.180000	0.827030
	11.185000	0.774411
	11.190000	0.764545
	11.195000	0.817164
	11.200000	0.823742
	11.205000	0.774411
	11.210000	0.764545
	11.215000	0.820453
	11.220000	0.833608
	11.225000	0.774411
	11.230000	0.767833
	11.235000	0.820453
	11.240000	0.830319
	11.245000	0.774411
	11.250000	0.767833
	11.255000	0.820453
	11.260000	0.830319
	11.265000	0.774411
	11.270000	0.767833
	11.275000	0.830319
	11.280000	0.836897
	11.285000	0.780988
	11.290000	0.774411
	11.295000	0.823742
	11.300000	0.836897
	11.305000	0.784277
	11.310000	0.777700
	11.315000	0.827030
	11.320000	0.840185
	11.325000	0.780988
	11.330000	0.777700
	11.335000	0.833608
	11.340000	0.843474
	11.345000	0.784277
	11.350000	0.777700
	11.355000	0.833608
	11.360000	0.840185
	11.365000	0.787566
	11.370000	0.774411
	11.375000	0.830319
	11.380000	0.843474
	11.385000	0.787566
	11.390000	0.780988
	11.395000	0.836897
	11.400000	0.840185
	11.405000	0.790854
	11.410000	0.777700
	11.415000	0.836897
	11.420000	0.843474
	11.425000	0.794143
	11.430000	0.787566
	11.435000	0.833608
	11.440000	0.843474
	11.445000	0.787566
	11.450000	0.784277
	11.455000	0.836897
	11.460000	0.846763
	11.465000	0.797432
	11.470000	0.784277
	11.475000	0.836897
	11.480000	0.850051
	11.485000	0.797432
	11.490000	0.784277
	11.495000	0.836897
	11.500000	0.850051
	11.505000	0.794143
	11.510000	0.790854
	11.515000	0.836897
	11.520000	0.846763
	11.525000	0.797432
	11.530000	0.787566
	11.535000	0.836897
	11.540000	0.850051
	11.545000	0.797432
	11.550000	0.790854
	11.555000	0.840185
	11.560000	0.853340
	11.565000	0.794143
	11.570000	0.784277
	11.575000	0.846763
	11.580000	0.853340
	11.585000	0.794143
	11.590000	0.787566
	11.595000	0.836897
	11.600000	0.853340
	11.605000	0.800721
	11.610000	0.787566
	11.615000	0.836897
	11.620000	0.853340
	11.625000	0.797432
	11.630000	0.787566
	11.635000	0.836897
	11.640000	0.856629
	11.645000	0.797432
	11.650000	0.790854
	11.655000	0.836897
	11.660000	0.853340
	11.665000	0.804009
	11.670000	0.790854
	11.675000	0.836897
	11.680000	0.853340
	11.685000	0.800721
	11.690000	0.784277
	11.695000	0.836897
	11.700000	0.846763
	11.705000	0.797432
	11.710000	0.787566
	11.715000	0.836897
	11.720000	0.846763
	11.725000	0.794143
	11.730000	0.784277
	11.735000	0.840185
	11.740000	0.850051
	11.745000	0.797432
	11.750000	0.787566
	11.755000	0.836897
	11.760000	0.850051
	11.765000	0.790854
	11.770000	0.784277
	11.775000	0.840185
	11.780000	0.846763
	11.785000	0.800721
	11.790000	0.784277
	11.795000	0.836897
	11.800000	0.850051
	11.805000	0.797432
	11.810000	0.787566
	11.815000	0.836897
	11.820000	0.853340
	11.825000	0.800721
	11.830000	0.787566
	11.835000	0.840185
	11.840000	0.846763
	11.845000	0.797432
	11.850000	0.787566
	11.855000	0.836897
	11.860000	0.850051
	11.865000	0.797432
	11.870000	0.787566
	11.875000	0.833608
	11.880000	0.856629
	11.885000	0.790854
	11.890000	0.784277
	11.895000	0.836897
	11.900000	0.856629
	11.905000	0.794143
	11.910000	0.787566
	11.915000	0.840185
	11.920000	0.856629
	11.925000	0.800721
	11.930000	0.790854
	11.935000	0.840185
	11.940000	0.853340
	11.945000	0.800721
	11.950000	0.790854
	11.955000	0.840185
	11.960000	0.853340
	11.965000	0.800721
	11.970000	0.787566
	11.975000	0.846763
	11.980000	0.856629
	11.985000	0.800721
	11.990000	0.794143
	11.995000	0.843474
	12.000000	0.853340
	12.005000	0.800721
	12.010000	0.787566
	12.015000	0.843474
	12.020000	0.859918
	12.025000	0.804009
	12.030000	0.790854
	12.035000	0.843474
	12.040000	0.856629
	12.045000	0.800721
	12.050000	0.784277
	12.055000	0.833608
	12.060000	0.853340
	12.065000	0.797432
	12.070000	0.787566
	12.075000	0.840185
	12.080000	0.856629
	12.085000	0.800721
	12.090000	0.787566
	12.095000	0.846763
	12.100000	0.856629
	12.105000	0.800721
	12.110000	0.787566
	12.115000	0.840185
	12.120000	0.856629
	12.125000	0.804009
	12.130000	0.790854
	12.135000	0.836897
	12.140000	0.853340
	12.145000	0.804009
	12.150000	0.790854
	12.155000	0.840185
	12.160000	0.856629
	12.165000	0.804009
	12.170000	0.790854
	12.175000	0.840185
	12.180000	0.856629
	12.185000	0.807298
	12.190000	0.787566
	12.195000	0.843474
	12.200000	0.853340
	12.205000	0.804009
	12.210000	0.794143
	12.215000	0.840185
	12.220000	0.856629
	12.225000	0.804009
	12.230000	0.790854
	12.235000	0.843474
	12.240000	0.859918
	12.245000	0.810587
	12.250000	0.790854
	12.255000	0.843474
	12.260000	0.859918
	12.265000	0.807298
	12.270000	0.790854
	12.275000	0.843474
	12.280000	0.859918
	12.285000	0.807298
	12.290000	0.787566
	12.295000	0.843474
	12.300000	0.859918
	12.305000	0.810587
	12.310000	0.787566
	12.315000	0.843474
	12.320000	0.863206
	12.325000	0.807298
	12.330000	0.790854
	12.335000	0.840185
	12.340000	0.859918
	12.345000	0.800721
	12.350000	0.790854
	12.355000	0.843474
	12.360000	0.859918
	12.365000	0.807298
	12.370000	0.787566
	12.375000	0.843474
	12.380000	0.859918
	12.385000	0.807298
	12.390000	0.787566
	12.395000	0.843474
	12.400000	0.859918
	12.405000	0.807298
	12.410000	0.794143
	12.415000	0.843474
	12.420000	0.859918
	12.425000	0.810587
	12.430000	0.790854
	12.435000	0.846763
	12.440000	0.859918
	12.445000	0.804009
	12.450000	0.790854
	12.455000	0.846763
	12.460000	0.863206
	12.465000	0.810587
	12.470000	0.794143
	12.475000	0.846763
	12.480000	0.859918
	12.485000	0.807298
	12.490000	0.797432
	12.495000	0.843474
	12.500000	0.863206
	12.505000	0.810587
	12.510000	0.790854
	12.515000	0.846763
	12.520000	0.859918
	12.525000	0.810587
	12.530000	0.794143
	12.535000	0.843474
	12.540000	0.866495
	12.545000	0.813876
	12.550000	0.794143
	12.555000	0.850051
	12.560000	0.863206
	12.565000	0.807298
	12.570000	0.794143
	12.575000	0.840185
	12.580000	0.856629
	12.585000	0.807298
	12.590000	0.794143
	12.595000	0.843474
	12.600000	0.863206
	12.605000	0.807298
	12.610000	0.794143
	12.615000	0.843474
	12.620000	0.866495
	12.625000	0.810587
	12.630000	0.794143
	12.635000	0.843474
	12.640000	0.863206
	12.645000	0.807298
	12.650000	0.794143
	12.655000	0.843474
	12.660000	0.863206
	12.665000	0.810587
	12.670000	0.790854
	12.675000	0.843474
	12.680000	0.866495
	12.685000	0.810587
	12.690000	0.790854
	12.695000	0.840185
	12.700000	0.869784
	12.705000	0.813876
	12.710000	0.790854
	12.715000	0.840185
	12.720000	0.866495
	12.725000	0.810587
	12.730000	0.794143
	12.735000	0.843474
	12.740000	0.863206
	12.745000	0.807298
	12.750000	0.794143
	12.755000	0.840185
	12.760000	0.863206
	12.765000	0.810587
	12.770000	0.790854
	12.775000	0.843474
	12.780000	0.863206
	12.785000	0.810587
	12.790000	0.787566
	12.795000	0.840185
	12.800000	0.859918
	12.805000	0.807298
	12.810000	0.794143
	12.815000	0.840185
	12.820000	0.859918
	12.825000	0.810587
	12.830000	0.790854
	12.835000	0.840185
	12.840000	0.859918
	12.845000	0.810587
	12.850000	0.790854
	12.855000	0.840185
	12.860000	0.859918
	12.865000	0.810587
	12.870000	0.790854
	12.875000	0.840185
	12.880000	0.863206
	12.885000	0.810587
	12.890000	0.790854
	12.895000	0.836897
	12.900000	0.859918
	12.905000	0.810587
	12.910000	0.790854
	12.915000	0.840185
	12.920000	0.863206
	12.925000	0.807298
	12.930000	0.790854
	12.935000	0.836897
	12.940000	0.859918
	12.945000	0.810587
	12.950000	0.794143
	12.955000	0.840185
	12.960000	0.863206
	12.965000	0.804009
	12.970000	0.790854
	12.975000	0.840185
	12.980000	0.859918
	12.985000	0.807298
	12.990000	0.790854
	12.995000	0.840185
	13.000000	0.863206
	13.005000	0.813876
	13.010000	0.794143
	13.015000	0.843474
	13.020000	0.863206
	13.025000	0.813876
	13.030000	0.790854
	13.035000	0.843474
	13.040000	0.863206
	13.045000	0.810587
	13.050000	0.787566
	13.055000	0.840185
	13.060000	0.863206
	13.065000	0.810587
	13.070000	0.790854
	13.075000	0.843474
	13.080000	0.869784
	13.085000	0.810587
	13.090000	0.790854
	13.095000	0.840185
	13.100000	0.859918
	13.105000	0.813876
	13.110000	0.790854
	13.115000	0.836897
	13.120000	0.859918
	13.125000	0.810587
	13.130000	0.790854
	13.135000	0.843474
	13.140000	0.866495
	13.145000	0.810587
	13.150000	0.787566
	13.155000	0.836897
	13.160000	0.863206
	13.165000	0.810587
	13.170000	0.794143
	13.175000	0.840185
	13.180000	0.859918
	13.185000	0.807298
	13.190000	0.790854
	13.195000	0.840185
	13.200000	0.863206
	13.205000	0.807298
	13.210000	0.790854
	13.215000	0.840185
	13.220000	0.863206
	13.225000	0.813876
	13.230000	0.790854
	13.235000	0.840185
	13.240000	0.863206
	13.245000	0.810587
	13.250000	0.794143
	13.255000	0.836897
	13.260000	0.863206
	13.265000	0.813876
	13.270000	0.794143
	13.275000	0.833608
	13.280000	0.863206
	13.285000	0.807298
	13.290000	0.787566
	13.295000	0.840185
	13.300000	0.869784
	13.305000	0.817164
	13.310000	0.794143
	13.315000	0.840185
	13.320000	0.859918
	13.325000	0.813876
	13.330000	0.794143
	13.335000	0.836897
	13.340000	0.866495
	13.345000	0.817164
	13.350000	0.794143
	13.355000	0.840185
	13.360000	0.863206
	13.365000	0.813876
	13.370000	0.790854
	13.375000	0.840185
	13.380000	0.866495
	13.385000	0.810587
	13.390000	0.790854
	13.395000	0.840185
	13.400000	0.863206
	13.405000	0.810587
	13.410000	0.787566
	13.415000	0.840185
	13.420000	0.863206
	13.425000	0.813876
	13.430000	0.794143
	13.435000	0.840185
	13.440000	0.863206
	13.445000	0.813876
	13.450000	0.790854
	13.455000	0.836897
	13.460000	0.863206
	13.465000	0.813876
	13.470000	0.790854
	13.475000	0.840185
	13.480000	0.859918
	13.485000	0.813876
	13.490000	0.790854
	13.495000	0.836897
	13.500000	0.863206
	13.505000	0.810587
	13.510000	0.790854
	13.515000	0.840185
	13.520000	0.866495
	13.525000	0.817164
	13.530000	0.790854
	13.535000	0.836897
	13.540000	0.866495
	13.545000	0.810587
	13.550000	0.790854
	13.555000	0.840185
	13.560000	0.866495
	13.565000	0.813876
	13.570000	0.790854
	13.575000	0.840185
	13.580000	0.866495
	13.585000	0.817164
	13.590000	0.787566
	13.595000	0.833608
	13.600000	0.866495
	13.605000	0.810587
	13.610000	0.790854
	13.615000	0.840185
	13.620000	0.863206
	13.625000	0.817164
	13.630000	0.790854
	13.635000	0.843474
	13.640000	0.866495
	13.645000	0.813876
	13.650000	0.794143
	13.655000	0.840185
	13.660000	0.863206
	13.665000	0.813876
	13.670000	0.794143
	13.675000	0.840185
	13.680000	0.866495
	13.685000	0.817164
	13.690000	0.794143
	13.695000	0.833608
	13.700000	0.866495
	13.705000	0.817164
	13.710000	0.794143
	13.715000	0.840185
	13.720000	0.866495
	13.725000	0.817164
	13.730000	0.794143
	13.735000	0.836897
	13.740000	0.863206
	13.745000	0.820453
	13.750000	0.794143
	13.755000	0.840185
	13.760000	0.863206
	13.765000	0.817164
	13.770000	0.790854
	13.775000	0.840185
	13.780000	0.866495
	13.785000	0.813876
	13.790000	0.790854
	13.795000	0.840185
	13.800000	0.866495
	13.805000	0.813876
	13.810000	0.787566
	13.815000	0.840185
	13.820000	0.866495
	13.825000	0.813876
	13.830000	0.790854
	13.835000	0.840185
	13.840000	0.863206
	13.845000	0.817164
	13.850000	0.790854
	13.855000	0.840185
	13.860000	0.866495
	13.865000	0.820453
	13.870000	0.790854
	13.875000	0.840185
	13.880000	0.863206
	13.885000	0.820453
	13.890000	0.794143
	13.895000	0.836897
	13.900000	0.866495
	13.905000	0.817164
	13.910000	0.790854
	13.915000	0.833608
	13.920000	0.863206
	13.925000	0.813876
	13.930000	0.790854
	13.935000	0.840185
	13.940000	0.863206
	13.945000	0.820453
	13.950000	0.794143
	13.955000	0.836897
	13.960000	0.863206
	13.965000	0.813876
	13.970000	0.784277
	13.975000	0.840185
	13.980000	0.859918
	13.985000	0.820453
	13.990000	0.790854
	13.995000	0.836897
	14.000000	0.866495
	14.005000	0.813876
	14.010000	0.790854
	14.015000	0.836897
	14.020000	0.866495
	14.025000	0.817164
	14.030000	0.790854
	14.035000	0.840185
	14.040000	0.863206
	14.045000	0.817164
	14.050000	0.797432
	14.055000	0.840185
	14.060000	0.869784
	14.065000	0.817164
	14.070000	0.794143
	14.075000	0.836897
	14.080000	0.869784
	14.085000	0.820453
	14.090000	0.787566
	14.095000	0.843474
	14.100000	0.873073
	14.105000	0.820453
	14.110000	0.797432
	14.115000	0.840185
	14.120000	0.866495
	14.125000	0.820453
	14.130000	0.787566
	14.135000	0.843474
	14.140000	0.869784
	14.145000	0.817164
	14.150000	0.787566
	14.155000	0.843474
	14.160000	0.869784
	14.165000	0.823742
	14.170000	0.794143
	14.175000	0.840185
	14.180000	0.873073
	14.185000	0.820453
	14.190000	0.797432
	14.195000	0.840185
	14.200000	0.873073
	14.205000	0.827030
	14.210000	0.794143
	14.215000	0.840185
	14.220000	0.869784
	14.225000	0.817164
	14.230000	0.794143
	14.235000	0.840185
	14.240000	0.866495
	14.245000	0.817164
	14.250000	0.794143
	14.255000	0.840185
	14.260000	0.869784
	14.265000	0.823742
	14.270000	0.807298
	14.275000	0.850051
	14.280000	0.876361
	14.285000	0.827030
	14.290000	0.800721
	14.295000	0.846763
	14.300000	0.873073
	14.305000	0.827030
	14.310000	0.800721
	14.315000	0.850051
	14.320000	0.873073
	14.325000	0.830319
	14.330000	0.794143
	14.335000	0.843474
	14.340000	0.876361
	14.345000	0.823742
	14.350000	0.797432
	14.355000	0.843474
	14.360000	0.869784
	14.365000	0.823742
	14.370000	0.794143
	14.375000	0.843474
	14.380000	0.876361
	14.385000	0.830319
	14.390000	0.794143
	14.395000	0.840185
	14.400000	0.869784
	14.405000	0.827030
	14.410000	0.800721
	14.415000	0.846763
	14.420000	0.876361
	14.425000	0.827030
	14.430000	0.800721
	14.435000	0.846763
	14.440000	0.879650
	14.445000	0.830319
	14.450000	0.804009
	14.455000	0.853340
	14.460000	0.879650
	14.465000	0.827030
	14.470000	0.804009
	14.475000	0.850051
	14.480000	0.882939
	14.485000	0.836897
	14.490000	0.804009
	14.495000	0.853340
	14.500000	0.882939
	14.505000	0.833608
	14.510000	0.804009
	14.515000	0.853340
	14.520000	0.886227
	14.525000	0.836897
	14.530000	0.807298
	14.535000	0.846763
	14.540000	0.882939
	14.545000	0.836897
	14.550000	0.807298
	14.555000	0.856629
	14.560000	0.882939
	14.565000	0.836897
	14.570000	0.804009
	14.575000	0.856629
	14.580000	0.879650
	14.585000	0.836897
	14.590000	0.807298
	14.595000	0.853340
	14.600000	0.879650
	14.605000	0.836897
	14.610000	0.810587
	14.615000	0.846763
	14.620000	0.886227
	14.625000	0.833608
	14.630000	0.807298
	14.635000	0.850051
	14.640000	0.882939
	14.645000	0.836897
	14.650000	0.807298
	14.655000	0.853340
	14.660000	0.882939
	14.665000	0.833608
	14.670000	0.804009
	14.675000	0.856629
	14.680000	0.882939
	14.685000	0.836897
	14.690000	0.810587
	14.695000	0.850051
	14.700000	0.886227
	14.705000	0.840185
	14.710000	0.807298
	14.715000	0.859918
	14.720000	0.892805
	14.725000	0.850051
	14.730000	0.820453
	14.735000	0.866495
	14.740000	0.896094
	14.745000	0.846763
	14.750000	0.813876
	14.755000	0.859918
	14.760000	0.892805
	14.765000	0.853340
	14.770000	0.810587
	14.775000	0.856629
	14.780000	0.889516
	14.785000	0.846763
	14.790000	0.817164
	14.795000	0.863206
	14.800000	0.896094
	14.805000	0.843474
	14.810000	0.813876
	14.815000	0.859918
	14.820000	0.892805
	14.825000	0.846763
	14.830000	0.820453
	14.835000	0.863206
	14.840000	0.896094
	14.845000	0.850051
	14.850000	0.820453
	14.855000	0.863206
	14.860000	0.899382
	14.865000	0.853340
	14.870000	0.820453
	14.875000	0.863206
	14.880000	0.896094
	14.885000	0.850051
	14.890000	0.817164
	14.895000	0.859918
	14.900000	0.896094
	14.905000	0.850051
	14.910000	0.810587
	14.915000	0.853340
	14.920000	0.882939
	14.925000	0.833608
	14.930000	0.804009
	14.935000	0.840185
	14.940000	0.879650
	14.945000	0.833608
	14.950000	0.800721
	14.955000	0.843474
	14.960000	0.876361
	14.965000	0.830319
	14.970000	0.797432
	14.975000	0.840185
	14.980000	0.873073
	14.985000	0.827030
	14.990000	0.794143
	14.995000	0.840185
	15.000000	0.876361
	15.005000	0.830319
	15.010000	0.794143
	15.015000	0.840185
	15.020000	0.876361
	15.025000	0.833608
	15.030000	0.800721
	15.035000	0.843474
	15.040000	0.879650
	15.045000	0.836897
	15.050000	0.800721
	15.055000	0.846763
	15.060000	0.879650
	15.065000	0.830319
	15.070000	0.794143
	15.075000	0.836897
	15.080000	0.876361
	15.085000	0.823742
	15.090000	0.794143
	15.095000	0.836897
	15.100000	0.876361
	15.105000	0.830319
	15.110000	0.794143
	15.115000	0.833608
	15.120000	0.873073
	15.125000	0.827030
	15.130000	0.790854
	15.135000	0.840185
	15.140000	0.876361
	15.145000	0.830319
	15.150000	0.790854
	15.155000	0.840185
	15.160000	0.873073
	15.165000	0.823742
	15.170000	0.787566
	15.175000	0.833608
	15.180000	0.869784
	15.185000	0.820453
	15.190000	0.780988
	15.195000	0.820453
	15.200000	0.866495
	15.205000	0.817164
	15.210000	0.774411
	15.215000	0.817164
	15.220000	0.856629
	15.225000	0.810587
	15.230000	0.774411
	15.235000	0.823742
	15.240000	0.863206
	15.245000	0.817164
	15.250000	0.774411
	15.255000	0.820453
	15.260000	0.856629
	15.265000	0.810587
	15.270000	0.777700
	15.275000	0.827030
	15.280000	0.859918
	15.285000	0.810587
	15.290000	0.777700
	15.295000	0.820453
	15.300000	0.856629
	15.305000	0.810587
	15.310000	0.777700
	15.315000	0.823742
	15.320000	0.859918
	15.325000	0.813876
	15.330000	0.780988
	15.335000	0.827030
	15.340000	0.863206
	15.345000	0.817164
	15.350000	0.777700
	15.355000	0.823742
	15.360000	0.863206
	15.365000	0.817164
	15.370000	0.787566
	15.375000	0.830319
	15.380000	0.873073
	15.385000	0.827030
	15.390000	0.797432
	15.395000	0.843474
	15.400000	0.879650
	15.405000	0.840185
	15.410000	0.810587
	15.415000	0.853340
	15.420000	0.892805
	15.425000	0.853340
	15.430000	0.817164
	15.435000	0.863206
	15.440000	0.896094
	15.445000	0.853340
	15.450000	0.813876
	15.455000	0.853340
	15.460000	0.886227
	15.465000	0.840185
	15.470000	0.794143
	15.475000	0.833608
	15.480000	0.873073
	15.485000	0.823742
	15.490000	0.787566
	15.495000	0.827030
	15.500000	0.863206
	15.505000	0.813876
	15.510000	0.774411
	15.515000	0.807298
	15.520000	0.840185
	15.525000	0.787566
	15.530000	0.741524
	15.535000	0.780988
	15.540000	0.817164
	15.545000	0.777700
	15.550000	0.734946
	15.555000	0.774411
	15.560000	0.813876
	15.565000	0.767833
	15.570000	0.731657
	15.575000	0.774411
	15.580000	0.813876
	15.585000	0.767833
	15.590000	0.734946
	15.595000	0.771122
	15.600000	0.807298
	15.605000	0.764545
	15.610000	0.731657
	15.615000	0.780988
	15.620000	0.813876
	15.625000	0.771122
	15.630000	0.734946
	15.635000	0.780988
	15.640000	0.813876
	15.645000	0.774411
	15.650000	0.738235
	15.655000	0.774411
	15.660000	0.817164
	15.665000	0.774411
	15.670000	0.738235
	15.675000	0.780988
	15.680000	0.820453
	15.685000	0.774411
	15.690000	0.741524
	15.695000	0.780988
	15.700000	0.817164
	15.705000	0.777700
	15.710000	0.741524
	15.715000	0.784277
	15.720000	0.827030
	15.725000	0.777700
	15.730000	0.738235
	15.735000	0.787566
	15.740000	0.823742
	15.745000	0.780988
	15.750000	0.741524
	15.755000	0.790854
	15.760000	0.823742
	15.765000	0.787566
	15.770000	0.751390
	15.775000	0.784277
	15.780000	0.830319
	15.785000	0.784277
	15.790000	0.751390
	15.795000	0.787566
	15.800000	0.830319
	15.805000	0.790854
	15.810000	0.754679
	15.815000	0.794143
	15.820000	0.833608
	15.825000	0.790854
	15.830000	0.754679
	15.835000	0.797432
	15.840000	0.827030
	15.845000	0.794143
	15.850000	0.754679
	15.855000	0.794143
	15.860000	0.833608
	15.865000	0.794143
	15.870000	0.761256
	15.875000	0.797432
	15.880000	0.840185
	15.885000	0.790854
	15.890000	0.761256
	15.895000	0.800721
	15.900000	0.836897
	15.905000	0.800721
	15.910000	0.757967
	15.915000	0.804009
	15.920000	0.836897
	15.925000	0.804009
	15.930000	0.764545
	15.935000	0.800721
	15.940000	0.843474
	15.945000	0.797432
	15.950000	0.767833
	15.955000	0.804009
	15.960000	0.843474
	15.965000	0.800721
	15.970000	0.764545
	15.975000	0.807298
	15.980000	0.840185
	15.985000	0.800721
	15.990000	0.767833
	15.995000	0.807298
	16.000000	0.843474
	16.005000	0.804009
	16.010000	0.767833
	16.015000	0.804009
	16.020000	0.843474
	16.025000	0.804009
	16.030000	0.767833
	16.035000	0.807298
	16.040000	0.840185
	16.045000	0.810587
	16.050000	0.767833
	16.055000	0.810587
	16.060000	0.846763
	16.065000	0.807298
	16.070000	0.767833
	16.075000	0.807298
	16.080000	0.850051
	16.085000	0.807298
	16.090000	0.767833
	16.095000	0.813876
	16.100000	0.853340
	16.105000	0.810587
	16.110000	0.774411
	16.115000	0.810587
	16.120000	0.850051
	16.125000	0.810587
	16.130000	0.774411
	16.135000	0.817164
	16.140000	0.846763
	16.145000	0.813876
	16.150000	0.774411
	16.155000	0.813876
	16.160000	0.853340
	16.165000	0.807298
	16.170000	0.767833
	16.175000	0.807298
	16.180000	0.843474
	16.185000	0.813876
	16.190000	0.767833
	16.195000	0.810587
	16.200000	0.853340
	16.205000	0.810587
	16.210000	0.774411
	16.215000	0.810587
	16.220000	0.853340
	16.225000	0.810587
	16.230000	0.771122
	16.235000	0.813876
	16.240000	0.853340
	16.245000	0.810587
	16.250000	0.774411
	16.255000	0.813876
	16.260000	0.850051
	16.265000	0.817164
	16.270000	0.771122
	16.275000	0.813876
	16.280000	0.853340
	16.285000	0.813876
	16.290000	0.774411
	16.295000	0.813876
	16.300000	0.856629
	16.305000	0.810587
	16.310000	0.777700
	16.315000	0.813876
	16.320000	0.853340
	16.325000	0.813876
	16.330000	0.777700
	16.335000	0.817164
	16.340000	0.853340
	16.345000	0.817164
	16.350000	0.780988
	16.355000	0.810587
	16.360000	0.856629
	16.365000	0.817164
	16.370000	0.774411
	16.375000	0.813876
	16.380000	0.853340
	16.385000	0.813876
	16.390000	0.777700
	16.395000	0.810587
	16.400000	0.853340
	16.405000	0.813876
	16.410000	0.777700
	16.415000	0.813876
	16.420000	0.853340
	16.425000	0.817164
	16.430000	0.774411
	16.435000	0.813876
	16.440000	0.856629
	16.445000	0.810587
	16.450000	0.774411
	16.455000	0.817164
	16.460000	0.859918
	16.465000	0.813876
	16.470000	0.780988
	16.475000	0.810587
	16.480000	0.856629
	16.485000	0.820453
	16.490000	0.780988
	16.495000	0.820453
	16.500000	0.856629
	16.505000	0.820453
	16.510000	0.777700
	16.515000	0.813876
	16.520000	0.856629
	16.525000	0.817164
	16.530000	0.774411
	16.535000	0.817164
	16.540000	0.850051
	16.545000	0.817164
	16.550000	0.777700
	16.555000	0.817164
	16.560000	0.859918
	16.565000	0.827030
	16.570000	0.780988
	16.575000	0.813876
	16.580000	0.856629
	16.585000	0.820453
	16.590000	0.780988
	16.595000	0.817164
	16.600000	0.863206
	16.605000	0.817164
	16.610000	0.777700
	16.615000	0.813876
	16.620000	0.859918
	16.625000	0.817164
	16.630000	0.771122
	16.635000	0.813876
	16.640000	0.856629
	16.645000	0.817164
	16.650000	0.777700
	16.655000	0.813876
	16.660000	0.856629
	16.665000	0.820453
	16.670000	0.780988
	16.675000	0.813876
	16.680000	0.856629
	16.685000	0.817164
	16.690000	0.780988
	16.695000	0.813876
	16.700000	0.859918
	16.705000	0.817164
	16.710000	0.780988
	16.715000	0.817164
	16.720000	0.859918
	16.725000	0.817164
	16.730000	0.777700
	16.735000	0.817164
	16.740000	0.856629
	16.745000	0.820453
	16.750000	0.774411
	16.755000	0.813876
	16.760000	0.859918
	16.765000	0.820453
	16.770000	0.780988
	16.775000	0.813876
	16.780000	0.859918
	16.785000	0.820453
	16.790000	0.777700
	16.795000	0.817164
	16.800000	0.859918
	16.805000	0.820453
	16.810000	0.780988
	16.815000	0.817164
	16.820000	0.856629
	16.825000	0.817164
	16.830000	0.780988
	16.835000	0.817164
	16.840000	0.856629
	16.845000	0.823742
	16.850000	0.780988
	16.855000	0.817164
	16.860000	0.859918
	16.865000	0.817164
	16.870000	0.780988
	16.875000	0.813876
	16.880000	0.856629
	16.885000	0.817164
	16.890000	0.777700
	16.895000	0.817164
	16.900000	0.859918
	16.905000	0.820453
	16.910000	0.777700
	16.915000	0.813876
	16.920000	0.856629
	16.925000	0.817164
	16.930000	0.780988
	16.935000	0.817164
	16.940000	0.853340
	16.945000	0.823742
	16.950000	0.780988
	16.955000	0.817164
	16.960000	0.859918
	16.965000	0.823742
	16.970000	0.784277
	16.975000	0.817164
	16.980000	0.856629
	16.985000	0.827030
	16.990000	0.780988
	16.995000	0.817164
	17.000000	0.859918
	17.005000	0.827030
	17.010000	0.780988
	17.015000	0.817164
	17.020000	0.863206
	17.025000	0.820453
	17.030000	0.780988
	17.035000	0.817164
	17.040000	0.859918
	17.045000	0.827030
	17.050000	0.784277
	17.055000	0.820453
	17.060000	0.863206
	17.065000	0.830319
	17.070000	0.780988
	17.075000	0.817164
	17.080000	0.863206
	17.085000	0.827030
	17.090000	0.784277
	17.095000	0.817164
	17.100000	0.866495
	17.105000	0.823742
	17.110000	0.784277
	17.115000	0.817164
	17.120000	0.859918
	17.125000	0.827030
	17.130000	0.787566
	17.135000	0.817164
	17.140000	0.863206
	17.145000	0.823742
	17.150000	0.787566
	17.155000	0.817164
	17.160000	0.863206
	17.165000	0.830319
	17.170000	0.784277
	17.175000	0.817164
	17.180000	0.863206
	17.185000	0.823742
	17.190000	0.777700
	17.195000	0.817164
	17.200000	0.859918
	17.205000	0.823742
	17.210000	0.780988
	17.215000	0.817164
	17.220000	0.856629
	17.225000	0.820453
	17.230000	0.784277
	17.235000	0.813876
	17.240000	0.859918
	17.245000	0.827030
	17.250000	0.784277
	17.255000	0.820453
	17.260000	0.863206
	17.265000	0.823742
	17.270000	0.780988
	17.275000	0.820453
	17.280000	0.859918
	17.285000	0.827030
	17.290000	0.784277
	17.295000	0.820453
	17.300000	0.859918
	17.305000	0.827030
	17.310000	0.787566
	17.315000	0.817164
	17.320000	0.863206
	17.325000	0.827030
	17.330000	0.784277
	17.335000	0.820453
	17.340000	0.863206
	17.345000	0.827030
	17.350000	0.780988
	17.355000	0.820453
	17.360000	0.863206
	17.365000	0.823742
	17.370000	0.787566
	17.375000	0.820453
	17.380000	0.866495
	17.385000	0.827030
	17.390000	0.787566
	17.395000	0.820453
	17.400000	0.863206
	17.405000	0.827030
	17.410000	0.787566
	17.415000	0.817164
	17.420000	0.866495
	17.425000	0.833608
	17.430000	0.787566
	17.435000	0.820453
	17.440000	0.863206
	17.445000	0.836897
	17.450000	0.784277
	17.455000	0.817164
	17.460000	0.866495
	17.465000	0.830319
	17.470000	0.790854
	17.475000	0.820453
	17.480000	0.866495
	17.485000	0.833608
	17.490000	0.790854
	17.495000	0.823742
	17.500000	0.866495
	17.505000	0.830319
	17.510000	0.790854
	17.515000	0.823742
	17.520000	0.863206
	17.525000	0.830319
	17.530000	0.784277
	17.535000	0.827030
	17.540000	0.866495
	17.545000	0.830319
	17.550000	0.790854
	17.555000	0.820453
	17.560000	0.863206
	17.565000	0.836897
	17.570000	0.790854
	17.575000	0.820453
	17.580000	0.866495
	17.585000	0.833608
	17.590000	0.787566
	17.595000	0.823742
	17.600000	0.863206
	17.605000	0.833608
	17.610000	0.790854
	17.615000	0.823742
	17.620000	0.866495
	17.625000	0.836897
	17.630000	0.787566
	17.635000	0.823742
	17.640000	0.866495
	17.645000	0.830319
	17.650000	0.787566
	17.655000	0.827030
	17.660000	0.863206
	17.665000	0.840185
	17.670000	0.790854
	17.675000	0.820453
	17.680000	0.863206
	17.685000	0.833608
	17.690000	0.790854
	17.695000	0.820453
	17.700000	0.869784
	17.705000	0.836897
	17.710000	0.790854
	17.715000	0.820453
	17.720000	0.869784
	17.725000	0.833608
	17.730000	0.790854
	17.735000	0.823742
	17.740000	0.866495
	17.745000	0.836897
	17.750000	0.794143
	17.755000	0.820453
	17.760000	0.869784
	17.765000	0.836897
	17.770000	0.790854
	17.775000	0.823742
	17.780000	0.866495
	17.785000	0.833608
	17.790000	0.787566
	17.795000	0.820453
	17.800000	0.869784
	17.805000	0.833608
	17.810000	0.794143
	17.815000	0.827030
	17.820000	0.869784
	17.825000	0.836897
	17.830000	0.790854
	17.835000	0.823742
	17.840000	0.873073
	17.845000	0.833608
	17.850000	0.787566
	17.855000	0.823742
	17.860000	0.866495
	17.865000	0.836897
	17.870000	0.787566
	17.875000	0.820453
	17.880000	0.866495
	17.885000	0.830319
	17.890000	0.790854
	17.895000	0.820453
	17.900000	0.863206
	17.905000	0.833608
	17.910000	0.790854
	17.915000	0.820453
	17.920000	0.866495
	17.925000	0.833608
	17.930000	0.794143
	17.935000	0.827030
	17.940000	0.869784
	17.945000	0.836897
	17.950000	0.794143
	17.955000	0.820453
	17.960000	0.866495
	17.965000	0.836897
	17.970000	0.790854
	17.975000	0.820453
	17.980000	0.866495
	17.985000	0.836897
	17.990000	0.790854
	17.995000	0.820453
	18.000000	0.866495
	18.005000	0.833608
	18.010000	0.790854
	18.015000	0.823742
	18.020000	0.866495
	18.025000	0.836897
	18.030000	0.790854
	18.035000	0.820453
	18.040000	0.869784
	18.045000	0.833608
	18.050000	0.790854
	18.055000	0.827030
	18.060000	0.866495
	18.065000	0.840185
	18.070000	0.790854
	18.075000	0.823742
	18.080000	0.869784
	18.085000	0.833608
	18.090000	0.790854
	18.095000	0.820453
	18.100000	0.869784
	18.105000	0.836897
	18.110000	0.790854
	18.115000	0.823742
	18.120000	0.869784
	18.125000	0.836897
	18.130000	0.790854
	18.135000	0.820453
	18.140000	0.869784
	18.145000	0.836897
	18.150000	0.794143
	18.155000	0.823742
	18.160000	0.869784
	18.165000	0.833608
	18.170000	0.794143
	18.175000	0.820453
	18.180000	0.866495
	18.185000	0.836897
	18.190000	0.797432
	18.195000	0.823742
	18.200000	0.863206
	18.205000	0.843474
	18.210000	0.790854
	18.215000	0.820453
	18.220000	0.869784
	18.225000	0.833608
	18.230000	0.784277
	18.235000	0.820453
	18.240000	0.863206
	18.245000	0.833608
	18.250000	0.780988
	18.255000	0.817164
	18.260000	0.863206
	18.265000	0.833608
	18.270000	0.780988
	18.275000	0.813876
	18.280000	0.859918
	18.285000	0.827030
	18.290000	0.784277
	18.295000	0.817164
	18.300000	0.859918
	18.305000	0.830319
	18.310000	0.780988
	18.315000	0.813876
	18.320000	0.856629
	18.325000	0.830319
	18.330000	0.784277
	18.335000	0.817164
	18.340000	0.866495
	18.345000	0.827030
	18.350000	0.780988
	18.355000	0.813876
	18.360000	0.856629
	18.365000	0.827030
	18.370000	0.784277
	18.375000	0.817164
	18.380000	0.863206
	18.385000	0.827030
	18.390000	0.787566
	18.395000	0.817164
	18.400000	0.859918
	18.405000	0.833608
	18.410000	0.780988
	18.415000	0.813876
	18.420000	0.856629
	18.425000	0.830319
	18.430000	0.784277
	18.435000	0.813876
	18.440000	0.856629
	18.445000	0.830319
	18.450000	0.780988
	18.455000	0.813876
	18.460000	0.856629
	18.465000	0.833608
	18.470000	0.780988
	18.475000	0.813876
	18.480000	0.859918
	18.485000	0.827030
	18.490000	0.780988
	18.495000	0.810587
	18.500000	0.859918
	18.505000	0.830319
	18.510000	0.784277
	18.515000	0.810587
	18.520000	0.859918
	18.525000	0.827030
	18.530000	0.787566
	18.535000	0.810587
	18.540000	0.856629
	18.545000	0.830319
	18.550000	0.780988
	18.555000	0.813876
	18.560000	0.856629
	18.565000	0.830319
	18.570000	0.784277
	18.575000	0.813876
	18.580000	0.863206
	18.585000	0.823742
	18.590000	0.777700
	18.595000	0.817164
	18.600000	0.859918
	18.605000	0.827030
	18.610000	0.784277
	18.615000	0.813876
	18.620000	0.856629
	18.625000	0.827030
	18.630000	0.784277
	18.635000	0.813876
	18.640000	0.863206
	18.645000	0.827030
	18.650000	0.777700
	18.655000	0.817164
	18.660000	0.856629
	18.665000	0.827030
	18.670000	0.780988
	18.675000	0.807298
	18.680000	0.856629
	18.685000	0.833608
	18.690000	0.784277
	18.695000	0.813876
	18.700000	0.859918
	18.705000	0.830319
	18.710000	0.780988
	18.715000	0.807298
	18.720000	0.853340
	18.725000	0.827030
	18.730000	0.784277
	18.735000	0.810587
	18.740000	0.856629
	18.745000	0.823742
	18.750000	0.787566
	18.755000	0.810587
	18.760000	0.856629
	18.765000	0.833608
	18.770000	0.780988
	18.775000	0.810587
	18.780000	0.856629
	18.785000	0.827030
	18.790000	0.787566
	18.795000	0.807298
	18.800000	0.856629
	18.805000	0.830319
	18.810000	0.780988
	18.815000	0.813876
	18.820000	0.859918
	18.825000	0.827030
	18.830000	0.780988
	18.835000	0.813876
	18.840000	0.859918
	18.845000	0.827030
	18.850000	0.780988
	18.855000	0.813876
	18.860000	0.856629
	18.865000	0.830319
	18.870000	0.780988
	18.875000	0.813876
	18.880000	0.859918
	18.885000	0.830319
	18.890000	0.784277
	18.895000	0.807298
	18.900000	0.856629
	18.905000	0.827030
	18.910000	0.780988
	18.915000	0.810587
	18.920000	0.856629
	18.925000	0.830319
	18.930000	0.780988
	18.935000	0.813876
	18.940000	0.856629
	18.945000	0.833608
	18.950000	0.780988
	18.955000	0.813876
	18.960000	0.856629
	18.965000	0.833608
	18.970000	0.780988
	18.975000	0.810587
	18.980000	0.859918
	18.985000	0.830319
	18.990000	0.780988
	18.995000	0.807298
	19.000000	0.856629
	19.005000	0.827030
	19.010000	0.780988
	19.015000	0.810587
	19.020000	0.859918
	19.025000	0.833608
	19.030000	0.784277
	19.035000	0.813876
	19.040000	0.859918
	19.045000	0.833608
	19.050000	0.784277
	19.055000	0.807298
	19.060000	0.856629
	19.065000	0.833608
	19.070000	0.790854
	19.075000	0.813876
	19.080000	0.859918
	19.085000	0.833608
	19.090000	0.784277
	19.095000	0.813876
	19.100000	0.863206
	19.105000	0.833608
	19.110000	0.787566
	19.115000	0.807298
	19.120000	0.859918
	19.125000	0.830319
	19.130000	0.784277
	19.135000	0.810587
	19.140000	0.863206
	19.145000	0.836897
	19.150000	0.784277
	19.155000	0.813876
	19.160000	0.859918
	19.165000	0.830319
	19.170000	0.784277
	19.175000	0.813876
	19.180000	0.863206
	19.185000	0.836897
	19.190000	0.784277
	19.195000	0.817164
	19.200000	0.863206
	19.205000	0.836897
	19.210000	0.787566
	19.215000	0.817164
	19.220000	0.859918
	19.225000	0.836897
	19.230000	0.787566
	19.235000	0.813876
	19.240000	0.866495
	19.245000	0.840185
	19.250000	0.787566
	19.255000	0.813876
	19.260000	0.866495
	19.265000	0.833608
	19.270000	0.787566
	19.275000	0.810587
	19.280000	0.866495
	19.285000	0.836897
	19.290000	0.790854
	19.295000	0.810587
	19.300000	0.863206
	19.305000	0.836897
	19.310000	0.784277
	19.315000	0.813876
	19.320000	0.863206
	19.325000	0.836897
	19.330000	0.784277
	19.335000	0.813876
	19.340000	0.859918
	19.345000	0.833608
	19.350000	0.780988
	19.355000	0.810587
	19.360000	0.856629
	19.365000	0.833608
	19.370000	0.777700
	19.375000	0.804009
	19.380000	0.856629
	19.385000	0.820453
	19.390000	0.771122
	19.395000	0.794143
	19.400000	0.843474
	19.405000	0.817164
	19.410000	0.767833
	19.415000	0.790854
	19.420000	0.843474
	19.425000	0.817164
	19.430000	0.771122
	19.435000	0.787566
	19.440000	0.843474
	19.445000	0.817164
	19.450000	0.774411
	19.455000	0.797432
	19.460000	0.853340
	19.465000	0.823742
	19.470000	0.771122
	19.475000	0.797432
	19.480000	0.853340
	19.485000	0.823742
	19.490000	0.774411
	19.495000	0.800721
	19.500000	0.853340
	19.505000	0.823742
	19.510000	0.777700
	19.515000	0.804009
	19.520000	0.859918
	19.525000	0.827030
	19.530000	0.777700
	19.535000	0.800721
	19.540000	0.856629
	19.545000	0.830319
	19.550000	0.780988
	19.555000	0.807298
	19.560000	0.859918
	19.565000	0.836897
	19.570000	0.784277
	19.575000	0.810587
	19.580000	0.859918
	19.585000	0.827030
	19.590000	0.780988
	19.595000	0.807298
	19.600000	0.856629
	19.605000	0.833608
	19.610000	0.780988
	19.615000	0.813876
	19.620000	0.859918
	19.625000	0.836897
	19.630000	0.784277
	19.635000	0.813876
	19.640000	0.863206
	19.645000	0.836897
	19.650000	0.784277
	19.655000	0.817164
	19.660000	0.866495
	19.665000	0.840185
	19.670000	0.784277
	19.675000	0.817164
	19.680000	0.859918
	19.685000	0.840185
	19.690000	0.780988
	19.695000	0.807298
	19.700000	0.859918
	19.705000	0.830319
	19.710000	0.774411
	19.715000	0.804009
	19.720000	0.853340
	19.725000	0.827030
	19.730000	0.777700
	19.735000	0.804009
	19.740000	0.853340
	19.745000	0.827030
	19.750000	0.774411
	19.755000	0.804009
	19.760000	0.859918
	19.765000	0.833608
	19.770000	0.777700
	19.775000	0.807298
	19.780000	0.859918
	19.785000	0.833608
	19.790000	0.774411
	19.795000	0.800721
	19.800000	0.856629
	19.805000	0.830319
	19.810000	0.780988
	19.815000	0.804009
	19.820000	0.856629
	19.825000	0.833608
	19.830000	0.774411
	19.835000	0.797432
	19.840000	0.859918
	19.845000	0.830319
	19.850000	0.777700
	19.855000	0.800721
	19.860000	0.853340
	19.865000	0.827030
	19.870000	0.774411
	19.875000	0.807298
	19.880000	0.856629
	19.885000	0.827030
	19.890000	0.780988
	19.895000	0.800721
	19.900000	0.856629
	19.905000	0.833608
	19.910000	0.780988
	19.915000	0.807298
	19.920000	0.859918
	19.925000	0.836897
	19.930000	0.777700
	19.935000	0.804009
	19.940000	0.856629
	19.945000	0.830319
	19.950000	0.780988
	19.955000	0.810587
	19.960000	0.863206
	19.965000	0.833608
	19.970000	0.784277
	19.975000	0.810587
	19.980000	0.863206
	19.985000	0.836897
	19.990000	0.794143
	19.995000	0.823742
	20.000000	0.873073
	20.005000	0.850051
	20.010000	0.804009
	20.015000	0.823742
	20.020000	0.882939
	20.025000	0.853340
	20.030000	0.800721
	20.035000	0.827030
	20.040000	0.873073
	20.045000	0.856629
	20.050000	0.800721
	20.055000	0.830319
	20.060000	0.876361
	20.065000	0.853340
	20.070000	0.794143
	20.075000	0.813876
	20.080000	0.866495
	20.085000	0.836897
	20.090000	0.784277
	20.095000	0.807298
	20.100000	0.859918
	20.105000	0.830319
	20.110000	0.774411
	20.115000	0.794143
	20.120000	0.843474
	20.125000	0.810587
	20.130000	0.751390
	20.135000	0.764545
	20.140000	0.810587
	20.145000	0.784277
	20.150000	0.731657
	20.155000	0.751390
	20.160000	0.807298
	20.165000	0.780988
	20.170000	0.728369
	20.175000	0.754679
	20.180000	0.804009
	20.185000	0.780988
	20.190000	0.728369
	20.195000	0.751390
	20.200000	0.804009
	20.205000	0.784277
	20.210000	0.731657
	20.215000	0.761256
	20.220000	0.810587
	20.225000	0.784277
	20.230000	0.738235
	20.235000	0.754679
	20.240000	0.810587
	20.245000	0.784277
	20.250000	0.734946
	20.255000	0.757967
	20.260000	0.810587
	20.265000	0.787566
	20.270000	0.738235
	20.275000	0.761256
	20.280000	0.810587
	20.285000	0.790854
	20.290000	0.741524
	20.295000	0.764545
	20.300000	0.810587
	20.305000	0.790854
	20.310000	0.741524
	20.315000	0.764545
	20.320000	0.813876
	20.325000	0.790854
	20.330000	0.744812
	20.335000	0.767833
	20.340000	0.813876
	20.345000	0.787566
	20.350000	0.744812
	20.355000	0.761256
	20.360000	0.813876
	20.365000	0.790854
	20.370000	0.744812
	20.375000	0.767833
	20.380000	0.817164
	20.385000	0.794143
	20.390000	0.744812
	20.395000	0.774411
	20.400000	0.817164
	20.405000	0.797432
	20.410000	0.748101
	20.415000	0.771122
	20.420000	0.820453
	20.425000	0.797432
	20.430000	0.751390
	20.435000	0.774411
	20.440000	0.823742
	20.445000	0.797432
	20.450000	0.748101
	20.455000	0.771122
	20.460000	0.817164
	20.465000	0.800721
	20.470000	0.748101
	20.475000	0.771122
	20.480000	0.827030
	20.485000	0.800721
	20.490000	0.757967
	20.495000	0.774411
	20.500000	0.827030
	20.505000	0.804009
	20.510000	0.761256
	20.515000	0.777700
	20.520000	0.827030
	20.525000	0.807298
	20.530000	0.754679
	20.535000	0.780988
	20.540000	0.827030
	20.545000	0.804009
	20.550000	0.757967
	20.555000	0.780988
	20.560000	0.830319
	20.565000	0.807298
	20.570000	0.761256
	20.575000	0.784277
	20.580000	0.836897
	20.585000	0.813876
	20.590000	0.764545
	20.595000	0.784277
	20.600000	0.836897
	20.605000	0.807298
	20.610000	0.761256
	20.615000	0.784277
	20.620000	0.833608
	20.625000	0.813876
	20.630000	0.764545
	20.635000	0.787566
	20.640000	0.836897
	20.645000	0.813876
	20.650000	0.761256
	20.655000	0.787566
	20.660000	0.836897
	20.665000	0.813876
	20.670000	0.761256
	20.675000	0.784277
	20.680000	0.833608
	20.685000	0.810587
	20.690000	0.761256
	20.695000	0.787566
	20.700000	0.833608
	20.705000	0.813876
	20.710000	0.764545
	20.715000	0.787566
	20.720000	0.840185
	20.725000	0.817164
	20.730000	0.764545
	20.735000	0.787566
	20.740000	0.840185
	20.745000	0.813876
	20.750000	0.767833
	20.755000	0.787566
	20.760000	0.836897
	20.765000	0.820453
	20.770000	0.764545
	20.775000	0.790854
	20.780000	0.836897
	20.785000	0.813876
	20.790000	0.767833
	20.795000	0.794143
	20.800000	0.843474
	20.805000	0.817164
	20.810000	0.764545
	20.815000	0.787566
	20.820000	0.836897
	20.825000	0.817164
	20.830000	0.767833
	20.835000	0.787566
	20.840000	0.836897
	20.845000	0.820453
	20.850000	0.764545
	20.855000	0.784277
	20.860000	0.840185
	20.865000	0.820453
	20.870000	0.774411
	20.875000	0.794143
	20.880000	0.843474
	20.885000	0.817164
	20.890000	0.774411
	20.895000	0.790854
	20.900000	0.840185
	20.905000	0.817164
	20.910000	0.767833
	20.915000	0.794143
	20.920000	0.840185
	20.925000	0.817164
	20.930000	0.774411
	20.935000	0.790854
	20.940000	0.836897
	20.945000	0.820453
	20.950000	0.771122
	20.955000	0.790854
	20.960000	0.840185
	20.965000	0.820453
	20.970000	0.771122
	20.975000	0.787566
	20.980000	0.836897
	20.985000	0.817164
	20.990000	0.767833
	20.995000	0.790854
	21.000000	0.843474
	21.005000	0.820453
	21.010000	0.764545
	21.015000	0.787566
	21.020000	0.840185
	21.025000	0.813876
	21.030000	0.767833
	21.035000	0.790854
	21.040000	0.840185
	21.045000	0.820453
	21.050000	0.771122
	21.055000	0.787566
	21.060000	0.840185
	21.065000	0.820453
	21.070000	0.771122
	21.075000	0.790854
	21.080000	0.843474
	21.085000	0.820453
	21.090000	0.767833
	21.095000	0.790854
	21.100000	0.840185
	21.105000	0.820453
	21.110000	0.767833
	21.115000	0.790854
	21.120000	0.840185
	21.125000	0.817164
	21.130000	0.774411
	21.135000	0.787566
	21.140000	0.843474
	21.145000	0.820453
	21.150000	0.771122
	21.155000	0.794143
	21.160000	0.840185
	21.165000	0.817164
	21.170000	0.767833
	21.175000	0.794143
	21.180000	0.846763
	21.185000	0.827030
	21.190000	0.774411
	21.195000	0.790854
	21.200000	0.843474
	21.205000	0.817164
	21.210000	0.771122
	21.215000	0.797432
	21.220000	0.846763
	21.225000	0.823742
	21.230000	0.774411
	21.235000	0.794143
	21.240000	0.840185
	21.245000	0.827030
	21.250000	0.767833
	21.255000	0.794143
	21.260000	0.846763
	21.265000	0.820453
	21.270000	0.774411
	21.275000	0.794143
	21.280000	0.840185
	21.285000	0.827030
	21.290000	0.767833
	21.295000	0.797432
	21.300000	0.843474
	21.305000	0.827030
	21.310000	0.771122
	21.315000	0.794143
	21.320000	0.836897
	21.325000	0.823742
	21.330000	0.774411
	21.335000	0.794143
	21.340000	0.843474
	21.345000	0.820453
	21.350000	0.767833
	21.355000	0.790854
	21.360000	0.840185
	21.365000	0.820453
	21.370000	0.774411
	21.375000	0.794143
	21.380000	0.843474
	21.385000	0.827030
	21.390000	0.771122
	21.395000	0.794143
	21.400000	0.846763
	21.405000	0.827030
	21.410000	0.774411
	21.415000	0.794143
	21.420000	0.843474
	21.425000	0.823742
	21.430000	0.774411
	21.435000	0.800721
	21.440000	0.840185
	21.445000	0.827030
	21.450000	0.777700
	21.455000	0.794143
	21.460000	0.843474
	21.465000	0.827030
	21.470000	0.777700
	21.475000	0.797432
	21.480000	0.846763
	21.485000	0.827030
	21.490000	0.774411
	21.495000	0.794143
	21.500000	0.846763
	21.505000	0.827030
	21.510000	0.774411
	21.515000	0.790854
	21.520000	0.843474
	21.525000	0.823742
	21.530000	0.777700
	21.535000	0.800721
	21.540000	0.846763
	21.545000	0.827030
	21.550000	0.774411
	21.555000	0.790854
	21.560000	0.843474
	21.565000	0.827030
	21.570000	0.774411
	21.575000	0.794143
	21.580000	0.850051
	21.585000	0.827030
	21.590000	0.777700
	21.595000	0.794143
	21.600000	0.846763
	21.605000	0.830319
	21.610000	0.780988
	21.615000	0.800721
	21.620000	0.846763
	21.625000	0.827030
	21.630000	0.771122
	21.635000	0.800721
	21.640000	0.846763
	21.645000	0.827030
	21.650000	0.774411
	21.655000	0.797432
	21.660000	0.843474
	21.665000	0.830319
	21.670000	0.780988
	21.675000	0.794143
	21.680000	0.850051
	21.685000	0.830319
	21.690000	0.780988
	21.695000	0.794143
	21.700000	0.843474
	21.705000	0.830319
	21.710000	0.774411
	21.715000	0.800721
	21.720000	0.846763
	21.725000	0.827030
	21.730000	0.780988
	21.735000	0.794143
	21.740000	0.846763
	21.745000	0.830319
	21.750000	0.777700
	21.755000	0.794143
	21.760000	0.846763
	21.765000	0.827030
	21.770000	0.774411
	21.775000	0.797432
	21.780000	0.846763
	21.785000	0.820453
	21.790000	0.774411
	21.795000	0.794143
	21.800000	0.843474
	21.805000	0.823742
	21.810000	0.774411
	21.815000	0.794143
	21.820000	0.846763
	21.825000	0.830319
	21.830000	0.780988
	21.835000	0.800721
	21.840000	0.846763
	21.845000	0.830319
	21.850000	0.771122
	21.855000	0.797432
	21.860000	0.840185
	21.865000	0.827030
	21.870000	0.771122
	21.875000	0.797432
	21.880000	0.846763
	21.885000	0.833608
	21.890000	0.780988
	21.895000	0.800721
	21.900000	0.853340
	21.905000	0.840185
	21.910000	0.784277
	21.915000	0.810587
	21.920000	0.856629
	21.925000	0.840185
	21.930000	0.784277
	21.935000	0.804009
	21.940000	0.856629
	21.945000	0.833608
	21.950000	0.777700
	21.955000	0.797432
	21.960000	0.856629
	21.965000	0.836897
	21.970000	0.784277
	21.975000	0.797432
	21.980000	0.856629
	21.985000	0.836897
	21.990000	0.790854
	21.995000	0.804009
	22.000000	0.859918
	22.005000	0.840185
	22.010000	0.787566
	22.015000	0.807298
	22.020000	0.859918
	22.025000	0.843474
	22.030000	0.787566
	22.035000	0.810587
	22.040000	0.863206
	22.045000	0.840185
	22.050000	0.787566
	22.055000	0.810587
	22.060000	0.863206
	22.065000	0.840185
	22.070000	0.794143
	22.075000	0.810587
	22.080000	0.863206
	22.085000	0.843474
	22.090000	0.790854
	22.095000	0.810587
	22.100000	0.863206
	22.105000	0.843474
	22.110000	0.790854
	22.115000	0.810587
	22.120000	0.859918
	22.125000	0.843474
	22.130000	0.790854
	22.135000	0.810587
	22.140000	0.859918
	22.145000	0.840185
	22.150000	0.787566
	22.155000	0.804009
	22.160000	0.859918
	22.165000	0.840185
	22.170000	0.787566
	22.175000	0.807298
	22.180000	0.856629
	22.185000	0.836897
	22.190000	0.787566
	22.195000	0.804009
	22.200000	0.863206
	22.205000	0.836897
	22.210000	0.790854
	22.215000	0.807298
	22.220000	0.856629
	22.225000	0.836897
	22.230000	0.784277
	22.235000	0.810587
	22.240000	0.859918
	22.245000	0.840185
	22.250000	0.784277
	22.255000	0.804009
	22.260000	0.853340
	22.265000	0.836897
	22.270000	0.790854
	22.275000	0.800721
	22.280000	0.856629
	22.285000	0.836897
	22.290000	0.784277
	22.295000	0.804009
	22.300000	0.853340
	22.305000	0.843474
	22.310000	0.787566
	22.315000	0.804009
	22.320000	0.853340
	22.325000	0.840185
	22.330000	0.787566
	22.335000	0.807298
	22.340000	0.856629
	22.345000	0.840185
	22.350000	0.787566
	22.355000	0.800721
	22.360000	0.859918
	22.365000	0.840185
	22.370000	0.784277
	22.375000	0.807298
	22.380000	0.856629
	22.385000	0.836897
	22.390000	0.787566
	22.395000	0.804009
	22.400000	0.853340
	22.405000	0.836897
	22.410000	0.790854
	22.415000	0.804009
	22.420000	0.859918
	22.425000	0.843474
	22.430000	0.790854
	22.435000	0.804009
	22.440000	0.856629
	22.445000	0.840185
	22.450000	0.787566
	22.455000	0.807298
	22.460000	0.859918
	22.465000	0.840185
	22.470000	0.787566
	22.475000	0.807298
	22.480000	0.863206
	22.485000	0.843474
	22.490000	0.787566
	22.495000	0.807298
	22.500000	0.856629
	22.505000	0.843474
	22.510000	0.790854
	22.515000	0.804009
	22.520000	0.853340
	22.525000	0.836897
	22.530000	0.777700
	22.535000	0.797432
	22.540000	0.846763
	22.545000	0.833608
	22.550000	0.784277
	22.555000	0.800721
	22.560000	0.853340
	22.565000	0.836897
	22.570000	0.784277
	22.575000	0.800721
	22.580000	0.853340
	22.585000	0.833608
	22.590000	0.784277
	22.595000	0.804009
	22.600000	0.853340
	22.605000	0.833608
	22.610000	0.780988
	22.615000	0.804009
	22.620000	0.856629
	22.625000	0.836897
	22.630000	0.784277
	22.635000	0.804009
	22.640000	0.856629
	22.645000	0.840185
	22.650000	0.784277
	22.655000	0.807298
	22.660000	0.853340
	22.665000	0.836897
	22.670000	0.787566
	22.675000	0.800721
	22.680000	0.850051
	22.685000	0.843474
	22.690000	0.787566
	22.695000	0.800721
	22.700000	0.856629
	22.705000	0.836897
	22.710000	0.784277
	22.715000	0.804009
	22.720000	0.853340
	22.725000	0.836897
	22.730000	0.784277
	22.735000	0.804009
	22.740000	0.853340
	22.745000	0.836897
	22.750000	0.784277
	22.755000	0.800721
	22.760000	0.856629
	22.765000	0.836897
	22.770000	0.784277
	22.775000	0.804009
	22.780000	0.853340
	22.785000	0.840185
	22.790000	0.780988
	22.795000	0.797432
	22.800000	0.853340
	22.805000	0.836897
	22.810000	0.784277
	22.815000	0.800721
	22.820000	0.850051
	22.825000	0.833608
	22.830000	0.787566
	22.835000	0.807298
	22.840000	0.856629
	22.845000	0.836897
	22.850000	0.784277
	22.855000	0.804009
	22.860000	0.856629
	22.865000	0.836897
	22.870000	0.784277
	22.875000	0.797432
	22.880000	0.856629
	22.885000	0.836897
	22.890000	0.784277
	22.895000	0.800721
	22.900000	0.846763
	22.905000	0.833608
	22.910000	0.784277
	22.915000	0.800721
	22.920000	0.853340
	22.925000	0.833608
	22.930000	0.780988
	22.935000	0.800721
	22.940000	0.853340
	22.945000	0.836897
	22.950000	0.784277
	22.955000	0.800721
	22.960000	0.846763
	22.965000	0.833608
	22.970000	0.780988
	22.975000	0.800721
	22.980000	0.853340
	22.985000	0.836897
	22.990000	0.790854
	22.995000	0.800721
	23.000000	0.853340
	23.005000	0.840185
	23.010000	0.787566
	23.015000	0.800721
	23.020000	0.856629
	23.025000	0.836897
	23.030000	0.784277
	23.035000	0.800721
	23.040000	0.853340
	23.045000	0.833608
	23.050000	0.780988
	23.055000	0.797432
	23.060000	0.853340
	23.065000	0.836897
	23.070000	0.784277
	23.075000	0.794143
	23.080000	0.853340
	23.085000	0.836897
	23.090000	0.784277
	23.095000	0.800721
	23.100000	0.853340
	23.105000	0.836897
	23.110000	0.784277
	23.115000	0.797432
	23.120000	0.846763
	23.125000	0.833608
	23.130000	0.784277
	23.135000	0.800721
	23.140000	0.846763
	23.145000	0.836897
	23.150000	0.780988
	23.155000	0.800721
	23.160000	0.850051
	23.165000	0.836897
	23.170000	0.784277
	23.175000	0.800721
	23.180000	0.853340
	23.185000	0.833608
	23.190000	0.780988
	23.195000	0.800721
	23.200000	0.850051
	23.205000	0.836897
	23.210000	0.784277
	23.215000	0.800721
	23.220000	0.850051
	23.225000	0.833608
	23.230000	0.780988
	23.235000	0.800721
	23.240000	0.850051
	23.245000	0.836897
	23.250000	0.780988
	23.255000	0.797432
	23.260000	0.846763
	23.265000	0.833608
	23.270000	0.787566
	23.275000	0.800721
	23.280000	0.853340
	23.285000	0.833608
	23.290000	0.784277
	23.295000	0.807298
	23.300000	0.856629
	23.305000	0.833608
	23.310000	0.787566
	23.315000	0.800721
	23.320000	0.856629
	23.325000	0.843474
	23.330000	0.787566
	23.335000	0.804009
	23.340000	0.856629
	23.345000	0.836897
	23.350000	0.790854
	23.355000	0.807298
	23.360000	0.856629
	23.365000	0.840185
	23.370000	0.787566
	23.375000	0.804009
	23.380000	0.853340
	23.385000	0.840185
	23.390000	0.787566
	23.395000	0.804009
	23.400000	0.859918
	23.405000	0.843474
	23.410000	0.790854
	23.415000	0.807298
	23.420000	0.859918
	23.425000	0.840185
	23.430000	0.790854
	23.435000	0.807298
	23.440000	0.856629
	23.445000	0.843474
	23.450000	0.790854
	23.455000	0.807298
	23.460000	0.856629
	23.465000	0.850051
	23.470000	0.794143
	23.475000	0.807298
	23.480000	0.859918
	23.485000	0.843474
	23.490000	0.790854
	23.495000	0.804009
	23.500000	0.859918
	23.505000	0.846763
	23.510000	0.787566
	23.515000	0.807298
	23.520000	0.853340
	23.525000	0.840185
	23.530000	0.787566
	23.535000	0.807298
	23.540000	0.853340
	23.545000	0.840185
	23.550000	0.790854
	23.555000	0.804009
	23.560000	0.856629
	23.565000	0.836897
	23.570000	0.794143
	23.575000	0.807298
	23.580000	0.863206
	23.585000	0.840185
	23.590000	0.790854
	23.595000	0.807298
	23.600000	0.856629
	23.605000	0.840185
	23.610000	0.787566
	23.615000	0.807298
	23.620000	0.850051
	23.625000	0.840185
	23.630000	0.787566
	23.635000	0.804009
	23.640000	0.856629
	23.645000	0.840185
	23.650000	0.794143
	23.655000	0.807298
	23.660000	0.859918
	23.665000	0.846763
	23.670000	0.790854
	23.675000	0.810587
	23.680000	0.859918
	23.685000	0.846763
	23.690000	0.787566
	23.695000	0.813876
	23.700000	0.856629
	23.705000	0.850051
	23.710000	0.794143
	23.715000	0.813876
	23.720000	0.866495
	23.725000	0.853340
	23.730000	0.797432
	23.735000	0.817164
	23.740000	0.866495
	23.745000	0.856629
	23.750000	0.794143
	23.755000	0.813876
	23.760000	0.866495
	23.765000	0.853340
	23.770000	0.797432
	23.775000	0.810587
	23.780000	0.866495
	23.785000	0.850051
	23.790000	0.797432
	23.795000	0.820453
	23.800000	0.869784
	23.805000	0.856629
	23.810000	0.800721
	23.815000	0.813876
	23.820000	0.873073
	23.825000	0.853340
	23.830000	0.804009
	23.835000	0.813876
	23.840000	0.873073
	23.845000	0.859918
	23.850000	0.807298
	23.855000	0.820453
	23.860000	0.873073
	23.865000	0.863206
	23.870000	0.807298
	23.875000	0.820453
	23.880000	0.873073
	23.885000	0.863206
	23.890000	0.807298
	23.895000	0.820453
	23.900000	0.873073
	23.905000	0.859918
	23.910000	0.807298
	23.915000	0.820453
	23.920000	0.879650
	23.925000	0.853340
	23.930000	0.810587
	23.935000	0.820453
	23.940000	0.873073
	23.945000	0.856629
	23.950000	0.804009
	23.955000	0.817164
	23.960000	0.873073
	23.965000	0.853340
	23.970000	0.800721
	23.975000	0.813876
	23.980000	0.866495
	23.985000	0.846763
	23.990000	0.790854
	23.995000	0.807298
	24.000000	0.863206
	24.005000	0.843474
	24.010000	0.790854
	24.015000	0.807298
	24.020000	0.859918
	24.025000	0.843474
	24.030000	0.790854
	24.035000	0.804009
	24.040000	0.863206
	24.045000	0.846763
	24.050000	0.797432
	24.055000	0.813876
	24.060000	0.869784
	24.065000	0.853340
	24.070000	0.800721
	24.075000	0.810587
	24.080000	0.863206
	24.085000	0.856629
	24.090000	0.797432
	24.095000	0.807298
	24.100000	0.863206
	24.105000	0.853340
	24.110000	0.794143
	24.115000	0.807298
	24.120000	0.859918
	24.125000	0.846763
	24.130000	0.794143
	24.135000	0.810587
	24.140000	0.863206
	24.145000	0.846763
	24.150000	0.790854
	24.155000	0.800721
	24.160000	0.859918
	24.165000	0.843474
	24.170000	0.787566
	24.175000	0.790854
	24.180000	0.856629
	24.185000	0.843474
	24.190000	0.784277
	24.195000	0.794143
	24.200000	0.853340
	24.205000	0.836897
	24.210000	0.777700
	24.215000	0.790854
	24.220000	0.850051
	24.225000	0.833608
	24.230000	0.777700
	24.235000	0.790854
	24.240000	0.843474
	24.245000	0.836897
	24.250000	0.777700
	24.255000	0.790854
	24.260000	0.846763
	24.265000	0.830319
	24.270000	0.774411
	24.275000	0.784277
	24.280000	0.843474
	24.285000	0.827030
	24.290000	0.774411
	24.295000	0.787566
	24.300000	0.840185
	24.305000	0.823742
	24.310000	0.777700
	24.315000	0.787566
	24.320000	0.843474
	24.325000	0.830319
	24.330000	0.774411
	24.335000	0.787566
	24.340000	0.846763
	24.345000	0.830319
	24.350000	0.777700
	24.355000	0.794143
	24.360000	0.846763
	24.365000	0.833608
	24.370000	0.777700
	24.375000	0.797432
	24.380000	0.850051
	24.385000	0.836897
	24.390000	0.784277
	24.395000	0.800721
	24.400000	0.853340
	24.405000	0.853340
	24.410000	0.787566
	24.415000	0.804009
	24.420000	0.863206
	24.425000	0.856629
	24.430000	0.800721
	24.435000	0.817164
	24.440000	0.866495
	24.445000	0.859918
	24.450000	0.800721
	24.455000	0.817164
	24.460000	0.876361
	24.465000	0.859918
	24.470000	0.804009
	24.475000	0.813876
	24.480000	0.863206
	24.485000	0.846763
	24.490000	0.790854
	24.495000	0.800721
	24.500000	0.850051
	24.505000	0.836897
	24.510000	0.771122
	24.515000	0.780988
	24.520000	0.833608
	24.525000	0.810587
	24.530000	0.748101
	24.535000	0.754679
	24.540000	0.810587
	24.545000	0.790854
	24.550000	0.734946
	24.555000	0.748101
	24.560000	0.807298
	24.565000	0.790854
	24.570000	0.734946
	24.575000	0.748101
	24.580000	0.800721
	24.585000	0.790854
	24.590000	0.738235
	24.595000	0.751390
	24.600000	0.804009
	24.605000	0.794143
	24.610000	0.741524
	24.615000	0.751390
	24.620000	0.807298
	24.625000	0.794143
	24.630000	0.738235
	24.635000	0.751390
	24.640000	0.807298
	24.645000	0.800721
	24.650000	0.741524
	24.655000	0.754679
	24.660000	0.807298
	24.665000	0.800721
	24.670000	0.744812
	24.675000	0.754679
	24.680000	0.810587
	24.685000	0.800721
	24.690000	0.744812
	24.695000	0.761256
	24.700000	0.817164
	24.705000	0.800721
	24.710000	0.744812
	24.715000	0.761256
	24.720000	0.813876
	24.725000	0.800721
	24.730000	0.751390
	24.735000	0.761256
	24.740000	0.810587
	24.745000	0.804009
	24.750000	0.751390
	24.755000	0.764545
	24.760000	0.813876
	24.765000	0.804009
	24.770000	0.751390
	24.775000	0.767833
	24.780000	0.813876
	24.785000	0.800721
	24.790000	0.751390
	24.795000	0.767833
	24.800000	0.823742
	24.805000	0.807298
	24.810000	0.754679
	24.815000	0.767833
	24.820000	0.827030
	24.825000	0.810587
	24.830000	0.761256
	24.835000	0.774411
	24.840000	0.823742
	24.845000	0.813876
	24.850000	0.757967
	24.855000	0.777700
	24.860000	0.827030
	24.865000	0.813876
	24.870000	0.761256
	24.875000	0.777700
	24.880000	0.836897
	24.885000	0.817164
	24.890000	0.764545
	24.895000	0.774411
	24.900000	0.827030
	24.905000	0.810587
	24.910000	0.767833
	24.915000	0.777700
	24.920000	0.830319
	24.925000	0.817164
	24.930000	0.764545
	24.935000	0.780988
	24.940000	0.830319
	24.945000	0.817164
	24.950000	0.767833
	24.955000	0.777700
	24.960000	0.833608
	24.965000	0.820453
	24.970000	0.767833
	24.975000	0.780988
	24.980000	0.827030
	24.985000	0.820453
	24.990000	0.771122
	24.995000	0.780988
	25.000000	0.830319
	25.005000	0.820453
	25.010000	0.767833
	25.015000	0.784277
	25.020000	0.833608
	25.025000	0.817164
	25.030000	0.767833
	25.035000	0.784277
	25.040000	0.830319
	25.045000	0.813876
	25.050000	0.771122
	25.055000	0.777700
	25.060000	0.830319
	25.065000	0.820453
	25.070000	0.771122
	25.075000	0.784277
	25.080000	0.836897
	25.085000	0.827030
	25.090000	0.767833
	25.095000	0.780988
	25.100000	0.836897
	25.105000	0.820453
	25.110000	0.771122
	25.115000	0.784277
	25.120000	0.840185
	25.125000	0.823742
	25.130000	0.774411
	25.135000	0.784277
	25.140000	0.836897
	25.145000	0.820453
	25.150000	0.771122
	25.155000	0.784277
	25.160000	0.836897
	25.165000	0.830319
	25.170000	0.774411
	25.175000	0.787566
	25.180000	0.836897
	25.185000	0.823742
	25.190000	0.774411
	25.195000	0.787566
	25.200000	0.843474
	25.205000	0.827030
	25.210000	0.774411
	25.215000	0.787566
	25.220000	0.833608
	25.225000	0.827030
	25.230000	0.774411
	25.235000	0.787566
	25.240000	0.836897
	25.245000	0.820453
	25.250000	0.774411
	25.255000	0.784277
	25.260000	0.836897
	25.265000	0.827030
	25.270000	0.774411
	25.275000	0.790854
	25.280000	0.840185
	25.285000	0.827030
	25.290000	0.774411
	25.295000	0.787566
	25.300000	0.833608
	25.305000	0.827030
	25.310000	0.774411
	25.315000	0.787566
	25.320000	0.833608
	25.325000	0.823742
	25.330000	0.771122
	25.335000	0.787566
	25.340000	0.836897
	25.345000	0.827030
	25.350000	0.771122
	25.355000	0.787566
	25.360000	0.840185
	25.365000	0.827030
	25.370000	0.777700
	25.375000	0.787566
	25.380000	0.833608
	25.385000	0.827030
	25.390000	0.774411
	25.395000	0.787566
	25.400000	0.840185
	25.405000	0.827030
	25.410000	0.774411
	25.415000	0.780988
	25.420000	0.836897
	25.425000	0.820453
	25.430000	0.771122
	25.435000	0.787566
	25.440000	0.840185
	25.445000	0.823742
	25.450000	0.774411
	25.455000	0.780988
	25.460000	0.836897
	25.465000	0.827030
	25.470000	0.774411
	25.475000	0.784277
	25.480000	0.833608
	25.485000	0.823742
	25.490000	0.771122
	25.495000	0.787566
	25.500000	0.840185
	25.505000	0.823742
	25.510000	0.771122
	25.515000	0.787566
	25.520000	0.836897
	25.525000	0.820453
	25.530000	0.774411
	25.535000	0.784277
	25.540000	0.833608
	25.545000	0.827030
	25.550000	0.771122
	25.555000	0.787566
	25.560000	0.836897
	25.565000	0.823742
	25.570000	0.771122
	25.575000	0.784277
	25.580000	0.836897
	25.585000	0.823742
	25.590000	0.767833
	25.595000	0.790854
	25.600000	0.840185
	25.605000	0.827030
	25.610000	0.771122
	25.615000	0.787566
	25.620000	0.836897
	25.625000	0.823742
	25.630000	0.771122
	25.635000	0.780988
	25.640000	0.836897
	25.645000	0.827030
	25.650000	0.774411
	25.655000	0.784277
	25.660000	0.836897
	25.665000	0.827030
	25.670000	0.771122
	25.675000	0.784277
	25.680000	0.836897
	25.685000	0.823742
	25.690000	0.771122
	25.695000	0.784277
	25.700000	0.836897
	25.705000	0.827030
	25.710000	0.771122
	25.715000	0.787566
	25.720000	0.836897
	25.725000	0.827030
	25.730000	0.774411
	25.735000	0.787566
	25.740000	0.836897
	25.745000	0.820453
	25.750000	0.774411
	25.755000	0.787566
	25.760000	0.833608
	25.765000	0.823742
	25.770000	0.771122
	25.775000	0.787566
	25.780000	0.833608
	25.785000	0.823742
	25.790000	0.774411
	25.795000	0.780988
	25.800000	0.833608
	25.805000	0.827030
	25.810000	0.774411
	25.815000	0.787566
	25.820000	0.836897
	25.825000	0.827030
	25.830000	0.774411
	25.835000	0.784277
	25.840000	0.836897
	25.845000	0.823742
	25.850000	0.771122
	25.855000	0.784277
	25.860000	0.836897
	25.865000	0.820453
	25.870000	0.771122
	25.875000	0.784277
	25.880000	0.836897
	25.885000	0.823742
	25.890000	0.771122
	25.895000	0.787566
	25.900000	0.836897
	25.905000	0.823742
	25.910000	0.767833
	25.915000	0.780988
	25.920000	0.830319
	25.925000	0.820453
	25.930000	0.767833
	25.935000	0.784277
	25.940000	0.836897
	25.945000	0.820453
	25.950000	0.774411
	25.955000	0.784277
	25.960000	0.840185
	25.965000	0.827030
	25.970000	0.774411
	25.975000	0.790854
	25.980000	0.836897
	25.985000	0.823742
	25.990000	0.777700
	25.995000	0.784277
	26.000000	0.836897
	26.005000	0.823742
	26.010000	0.771122
	26.015000	0.784277
	26.020000	0.840185
	26.025000	0.823742
	26.030000	0.777700
	26.035000	0.784277
	26.040000	0.836897
	26.045000	0.823742
	26.050000	0.774411
	26.055000	0.787566
	26.060000	0.840185
	26.065000	0.823742
	26.070000	0.771122
	26.075000	0.784277
	26.080000	0.836897
	26.085000	0.827030
	26.090000	0.774411
	26.095000	0.784277
	26.100000	0.843474
	26.105000	0.820453
	26.110000	0.777700
	26.115000	0.787566
	26.120000	0.843474
	26.125000	0.830319
	26.130000	0.774411
	26.135000	0.787566
	26.140000	0.836897
	26.145000	0.827030
	26.150000	0.774411
	26.155000	0.780988
	26.160000	0.840185
	26.165000	0.827030
	26.170000	0.771122
	26.175000	0.790854
	26.180000	0.843474
	26.185000	0.823742
	26.190000	0.774411
	26.195000	0.784277
	26.200000	0.840185
	26.205000	0.827030
	26.210000	0.774411
	26.215000	0.790854
	26.220000	0.840185
	26.225000	0.827030
	26.230000	0.777700
	26.235000	0.787566
	26.240000	0.833608
	26.245000	0.830319
	26.250000	0.774411
	26.255000	0.787566
	26.260000	0.836897
	26.265000	0.827030
	26.270000	0.771122
	26.275000	0.787566
	26.280000	0.840185
	26.285000	0.820453
	26.290000	0.774411
	26.295000	0.784277
	26.300000	0.840185
	26.305000	0.827030
	26.310000	0.774411
	26.315000	0.790854
	26.320000	0.836897
	26.325000	0.827030
	26.330000	0.774411
	26.335000	0.780988
	26.340000	0.840185
	26.345000	0.823742
	26.350000	0.774411
	26.355000	0.784277
	26.360000	0.840185
	26.365000	0.830319
	26.370000	0.774411
	26.375000	0.784277
	26.380000	0.836897
	26.385000	0.830319
	26.390000	0.774411
	26.395000	0.787566
	26.400000	0.840185
	26.405000	0.823742
	26.410000	0.771122
	26.415000	0.787566
	26.420000	0.840185
	26.425000	0.830319
	26.430000	0.774411
	26.435000	0.784277
	26.440000	0.836897
	26.445000	0.827030
	26.450000	0.774411
	26.455000	0.787566
	26.460000	0.843474
	26.465000	0.830319
	26.470000	0.774411
	26.475000	0.784277
	26.480000	0.840185
	26.485000	0.830319
	26.490000	0.774411
	26.495000	0.787566
	26.500000	0.840185
	26.505000	0.830319
	26.510000	0.774411
	26.515000	0.787566
	26.520000	0.843474
	26.525000	0.830319
	26.530000	0.774411
	26.535000	0.790854
	26.540000	0.836897
	26.545000	0.833608
	26.550000	0.777700
	26.555000	0.790854
	26.560000	0.843474
	26.565000	0.830319
	26.570000	0.774411
	26.575000	0.787566
	26.580000	0.840185
	26.585000	0.830319
	26.590000	0.774411
	26.595000	0.787566
	26.600000	0.846763
	26.605000	0.830319
	26.610000	0.780988
	26.615000	0.787566
	26.620000	0.840185
	26.625000	0.830319
	26.630000	0.777700
	26.635000	0.787566
	26.640000	0.840185
	26.645000	0.830319
	26.650000	0.777700
	26.655000	0.794143
	26.660000	0.840185
	26.665000	0.830319
	26.670000	0.780988
	26.675000	0.790854
	26.680000	0.843474
	26.685000	0.833608
	26.690000	0.780988
	26.695000	0.790854
	26.700000	0.840185
	26.705000	0.830319
	26.710000	0.777700
	26.715000	0.787566
	26.720000	0.843474
	26.725000	0.830319
	26.730000	0.777700
	26.735000	0.790854
	26.740000	0.840185
	26.745000	0.833608
	26.750000	0.777700
	26.755000	0.790854
	26.760000	0.846763
	26.765000	0.827030
	26.770000	0.777700
	26.775000	0.787566
	26.780000	0.840185
	26.785000	0.833608
	26.790000	0.777700
	26.795000	0.790854
	26.800000	0.836897
	26.805000	0.833608
	26.810000	0.777700
	26.815000	0.787566
	26.820000	0.843474
	26.825000	0.830319
	26.830000	0.777700
	26.835000	0.794143
	26.840000	0.846763
	26.845000	0.830319
	26.850000	0.777700
	26.855000	0.787566
	26.860000	0.846763
	26.865000	0.830319
	26.870000	0.780988
	26.875000	0.790854
	26.880000	0.846763
	26.885000	0.833608
	26.890000	0.774411
	26.895000	0.787566
	26.900000	0.843474
	26.905000	0.833608
	26.910000	0.774411
	26.915000	0.790854
	26.920000	0.836897
	26.925000	0.830319
	26.930000	0.780988
	26.935000	0.790854
	26.940000	0.846763
	26.945000	0.833608
	26.950000	0.777700
	26.955000	0.790854
	26.960000	0.843474
	26.965000	0.833608
	26.970000	0.780988
	26.975000	0.790854
	26.980000	0.843474
	26.985000	0.833608
	26.990000	0.780988
	26.995000	0.794143
	27.000000	0.850051
	27.005000	0.833608
	27.010000	0.777700
	27.015000	0.790854
	27.020000	0.843474
	27.025000	0.833608
	27.030000	0.777700
	27.035000	0.797432
	27.040000	0.850051
	27.045000	0.833608
	27.050000	0.777700
	27.055000	0.790854
	27.060000	0.846763
	27.065000	0.833608
	27.070000	0.780988
	27.075000	0.794143
	27.080000	0.846763
	27.085000	0.836897
	27.090000	0.774411
	27.095000	0.794143
	27.100000	0.846763
	27.105000	0.833608
	27.110000	0.784277
	27.115000	0.790854
	27.120000	0.853340
	27.125000	0.836897
	27.130000	0.780988
	27.135000	0.787566
	27.140000	0.846763
	27.145000	0.833608
	27.150000	0.780988
	27.155000	0.794143
	27.160000	0.843474
	27.165000	0.833608
	27.170000	0.784277
	27.175000	0.790854
	27.180000	0.843474
	27.185000	0.833608
	27.190000	0.780988
	27.195000	0.794143
	27.200000	0.850051
	27.205000	0.827030
	27.210000	0.784277
	27.215000	0.787566
	27.220000	0.840185
	27.225000	0.833608
	27.230000	0.777700
	27.235000	0.790854
	27.240000	0.843474
	27.245000	0.833608
	27.250000	0.780988
	27.255000	0.794143
	27.260000	0.843474
	27.265000	0.833608
	27.270000	0.780988
	27.275000	0.794143
	27.280000	0.846763
	27.285000	0.833608
	27.290000	0.780988
	27.295000	0.794143
	27.300000	0.846763
	27.305000	0.836897
	27.310000	0.780988
	27.315000	0.794143
	27.320000	0.846763
	27.325000	0.830319
	27.330000	0.780988
	27.335000	0.794143
	27.340000	0.843474
	27.345000	0.833608
	27.350000	0.780988
	27.355000	0.790854
	27.360000	0.843474
	27.365000	0.836897
	27.370000	0.780988
	27.375000	0.790854
	27.380000	0.840185
	27.385000	0.830319
	27.390000	0.780988
	27.395000	0.794143
	27.400000	0.846763
	27.405000	0.830319
	27.410000	0.777700
	27.415000	0.790854
	27.420000	0.843474
	27.425000	0.830319
	27.430000	0.777700
	27.435000	0.787566
	27.440000	0.846763
	27.445000	0.836897
	27.450000	0.780988
	27.455000	0.787566
	27.460000	0.843474
	27.465000	0.830319
	27.470000	0.777700
	27.475000	0.794143
	27.480000	0.840185
	27.485000	0.827030
	27.490000	0.774411
	27.495000	0.794143
	27.500000	0.840185
	27.505000	0.830319
	27.510000	0.780988
	27.515000	0.790854
	27.520000	0.843474
	27.525000	0.830319
	27.530000	0.777700
	27.535000	0.794143
	27.540000	0.843474
	27.545000	0.840185
	27.550000	0.780988
	27.555000	0.797432
	27.560000	0.843474
	27.565000	0.836897
	27.570000	0.780988
	27.575000	0.794143
	27.580000	0.843474
	27.585000	0.830319
	27.590000	0.777700
	27.595000	0.794143
	27.600000	0.840185
	27.605000	0.833608
	27.610000	0.780988
	27.615000	0.794143
	27.620000	0.846763
	27.625000	0.836897
	27.630000	0.774411
	27.635000	0.790854
	27.640000	0.843474
	27.645000	0.833608
	27.650000	0.777700
	27.655000	0.787566
	27.660000	0.846763
	27.665000	0.833608
	27.670000	0.777700
	27.675000	0.794143
	27.680000	0.843474
	27.685000	0.830319
	27.690000	0.780988
	27.695000	0.787566
	27.700000	0.843474
	27.705000	0.827030
	27.710000	0.774411
	27.715000	0.797432
	27.720000	0.843474
	27.725000	0.827030
	27.730000	0.777700
	27.735000	0.790854
	27.740000	0.843474
	27.745000	0.830319
	27.750000	0.780988
	27.755000	0.794143
	27.760000	0.843474
	27.765000	0.827030
	27.770000	0.777700
	27.775000	0.790854
	27.780000	0.843474
	27.785000	0.830319
	27.790000	0.777700
	27.795000	0.790854
	27.800000	0.846763
	27.805000	0.830319
	27.810000	0.780988
	27.815000	0.790854
	27.820000	0.846763
	27.825000	0.830319
	27.830000	0.777700
	27.835000	0.787566
	27.840000	0.843474
	27.845000	0.840185
	27.850000	0.777700
	27.855000	0.790854
	27.860000	0.843474
	27.865000	0.836897
	27.870000	0.780988
	27.875000	0.794143
	27.880000	0.846763
	27.885000	0.836897
	27.890000	0.774411
	27.895000	0.794143
	27.900000	0.846763
	27.905000	0.836897
	27.910000	0.777700
	27.915000	0.790854
	27.920000	0.840185
	27.925000	0.833608
	27.930000	0.780988
	27.935000	0.794143
	27.940000	0.846763
	27.945000	0.833608
	27.950000	0.780988
	27.955000	0.794143
	27.960000	0.846763
	27.965000	0.836897
	27.970000	0.784277
	27.975000	0.794143
	27.980000	0.846763
	27.985000	0.833608
	27.990000	0.780988
	27.995000	0.794143
	28.000000	0.846763
	28.005000	0.833608
	28.010000	0.784277
	28.015000	0.794143
	28.020000	0.843474
	28.025000	0.836897
	28.030000	0.784277
	28.035000	0.794143
	28.040000	0.843474
	28.045000	0.833608
	28.050000	0.780988
	28.055000	0.790854
	28.060000	0.846763
	28.065000	0.833608
	28.070000	0.784277
	28.075000	0.794143
	28.080000	0.853340
	28.085000	0.833608
	28.090000	0.780988
	28.095000	0.794143
	28.100000	0.846763
	28.105000	0.836897
	28.110000	0.780988
	28.115000	0.794143
	28.120000	0.850051
	28.125000	0.830319
	28.130000	0.780988
	28.135000	0.797432
	28.140000	0.850051
	28.145000	0.833608
	28.150000	0.784277
	28.155000	0.794143
	28.160000	0.846763
	28.165000	0.833608
	28.170000	0.777700
	28.175000	0.794143
	28.180000	0.846763
	28.185000	0.840185
	28.190000	0.777700
	28.195000	0.790854
	28.200000	0.843474
	28.205000	0.830319
	28.210000	0.780988
	28.215000	0.797432
	28.220000	0.843474
	28.225000	0.833608
	28.230000	0.777700
	28.235000	0.794143
	28.240000	0.846763
	28.245000	0.830319
	28.250000	0.780988
	28.255000	0.800721
	28.260000	0.843474
	28.265000	0.840185
	28.270000	0.784277
	28.275000	0.797432
	28.280000	0.846763
	28.285000	0.836897
	28.290000	0.784277
	28.295000	0.797432
	28.300000	0.856629
	28.305000	0.836897
	28.310000	0.787566
	28.315000	0.794143
	28.320000	0.853340
	28.325000	0.843474
	28.330000	0.787566
	28.335000	0.800721
	28.340000	0.853340
	28.345000	0.840185
	28.350000	0.787566
	28.355000	0.800721
	28.360000	0.856629
	28.365000	0.840185
	28.370000	0.790854
	28.375000	0.800721
	28.380000	0.853340
	28.385000	0.843474
	28.390000	0.787566
	28.395000	0.800721
	28.400000	0.856629
	28.405000	0.843474
	28.410000	0.794143
	28.415000	0.804009
	28.420000	0.856629
	28.425000	0.843474
	28.430000	0.787566
	28.435000	0.804009
	28.440000	0.856629
	28.445000	0.846763
	28.450000	0.794143
	28.455000	0.807298
	28.460000	0.856629
	28.465000	0.850051
	28.470000	0.794143
	28.475000	0.804009
	28.480000	0.859918
	28.485000	0.850051
	28.490000	0.794143
	28.495000	0.807298
	28.500000	0.859918
	28.505000	0.846763
	28.510000	0.790854
	28.515000	0.807298
	28.520000	0.863206
	28.525000	0.846763
	28.530000	0.794143
	28.535000	0.800721
	28.540000	0.853340
	28.545000	0.846763
	28.550000	0.790854
	28.555000	0.800721
	28.560000	0.853340
	28.565000	0.840185
	28.570000	0.790854
	28.575000	0.804009
	28.580000	0.856629
	28.585000	0.843474
	28.590000	0.794143
	28.595000	0.804009
	28.600000	0.853340
	28.605000	0.843474
	28.610000	0.784277
	28.615000	0.797432
	28.620000	0.853340
	28.625000	0.830319
	28.630000	0.774411
	28.635000	0.787566
	28.640000	0.846763
	28.645000	0.836897
	28.650000	0.777700
	28.655000	0.787566
	28.660000	0.843474
	28.665000	0.830319
	28.670000	0.774411
	28.675000	0.787566
	28.680000	0.840185
	28.685000	0.827030
	28.690000	0.774411
	28.695000	0.784277
	28.700000	0.840185
	28.705000	0.823742
	28.710000	0.771122
	28.715000	0.784277
	28.720000	0.836897
	28.725000	0.823742
	28.730000	0.761256
	28.735000	0.780988
	28.740000	0.830319
	28.745000	0.820453
	28.750000	0.761256
	28.755000	0.774411
	28.760000	0.830319
	28.765000	0.817164
	28.770000	0.761256
	28.775000	0.777700
	28.780000	0.827030
	28.785000	0.813876
	28.790000	0.754679
	28.795000	0.767833
	28.800000	0.823742
	28.805000	0.810587
	28.810000	0.754679
	28.815000	0.764545
	28.820000	0.823742
	28.825000	0.807298
	28.830000	0.751390
	28.835000	0.764545
	28.840000	0.823742
	28.845000	0.810587
	28.850000	0.751390
	28.855000	0.767833
	28.860000	0.820453
	28.865000	0.813876
	28.870000	0.754679
	28.875000	0.767833
	28.880000	0.827030
	28.885000	0.807298
	28.890000	0.751390
	28.895000	0.764545
	28.900000	0.827030
	28.905000	0.810587
	28.910000	0.754679
	28.915000	0.767833
	28.920000	0.823742
	28.925000	0.817164
	28.930000	0.754679
	28.935000	0.771122
	28.940000	0.830319
	28.945000	0.820453
	28.950000	0.761256
	28.955000	0.777700
	28.960000	0.833608
	28.965000	0.827030
	28.970000	0.767833
	28.975000	0.784277
	28.980000	0.843474
	28.985000	0.830319
	28.990000	0.777700
	28.995000	0.790854
	29.000000	0.853340
	29.005000	0.843474
	29.010000	0.787566
	29.015000	0.807298
	29.020000	0.866495
	29.025000	0.853340
	29.030000	0.800721
	29.035000	0.817164
	29.040000	0.876361
	29.045000	0.863206
	29.050000	0.804009
	29.055000	0.823742
	29.060000	0.873073
	29.065000	0.859918
	29.070000	0.804009
	29.075000	0.817164
	29.080000	0.873073
	29.085000	0.856629
	29.090000	0.800721
	29.095000	0.807298
	29.100000	0.856629
	29.105000	0.843474
	29.110000	0.777700
	29.115000	0.780988
	29.120000	0.830319
	29.125000	0.807298
	29.130000	0.754679
	29.135000	0.764545
	29.140000	0.820453
	29.145000	0.807298
	29.150000	0.751390
	29.155000	0.764545
	29.160000	0.823742
	29.165000	0.807298
	29.170000	0.751390
	29.175000	0.767833
	29.180000	0.817164
	29.185000	0.807298
	29.190000	0.748101
	29.195000	0.764545
	29.200000	0.813876
	29.205000	0.807298
	29.210000	0.751390
	29.215000	0.767833
	29.220000	0.820453
	29.225000	0.804009
	29.230000	0.751390
	29.235000	0.764545
	29.240000	0.817164
	29.245000	0.804009
	29.250000	0.751390
	29.255000	0.767833
	29.260000	0.813876
	29.265000	0.804009
	29.270000	0.754679
	29.275000	0.761256
	29.280000	0.820453
	29.285000	0.807298
	29.290000	0.754679
	29.295000	0.767833
	29.300000	0.823742
	29.305000	0.810587
	29.310000	0.754679
	29.315000	0.761256
	29.320000	0.817164
	29.325000	0.807298
	29.330000	0.751390
	29.335000	0.767833
	29.340000	0.817164
	29.345000	0.807298
	29.350000	0.751390
	29.355000	0.774411
	29.360000	0.827030
	29.365000	0.810587
	29.370000	0.754679
	29.375000	0.771122
	29.380000	0.830319
	29.385000	0.813876
	29.390000	0.757967
	29.395000	0.774411
	29.400000	0.827030
	29.405000	0.810587
	29.410000	0.754679
	29.415000	0.774411
	29.420000	0.827030
	29.425000	0.810587
	29.430000	0.761256
	29.435000	0.771122
	29.440000	0.830319
	29.445000	0.813876
	29.450000	0.761256
	29.455000	0.777700
	29.460000	0.833608
	29.465000	0.813876
	29.470000	0.761256
	29.475000	0.774411
	29.480000	0.827030
	29.485000	0.820453
	29.490000	0.764545
	29.495000	0.777700
	29.500000	0.833608
	29.505000	0.817164
	29.510000	0.767833
	29.515000	0.780988
	29.520000	0.833608
	29.525000	0.820453
	29.530000	0.764545
	29.535000	0.787566
	29.540000	0.840185
	29.545000	0.817164
	29.550000	0.774411
	29.555000	0.784277
	29.560000	0.836897
	29.565000	0.823742
	29.570000	0.771122
	29.575000	0.784277
	29.580000	0.833608
	29.585000	0.820453
	29.590000	0.774411
	29.595000	0.784277
	29.600000	0.840185
	29.605000	0.823742
	29.610000	0.767833
	29.615000	0.780988
	29.620000	0.833608
	29.625000	0.823742
	29.630000	0.764545
	29.635000	0.784277
	29.640000	0.836897
	29.645000	0.827030
	29.650000	0.771122
	29.655000	0.787566
	29.660000	0.830319
	29.665000	0.820453
	29.670000	0.764545
	29.675000	0.784277
	29.680000	0.836897
	29.685000	0.823742
	29.690000	0.771122
	29.695000	0.787566
	29.700000	0.833608
	29.705000	0.823742
	29.710000	0.771122
	29.715000	0.784277
	29.720000	0.836897
	29.725000	0.823742
	29.730000	0.767833
	29.735000	0.784277
	29.740000	0.840185
	29.745000	0.823742
	29.750000	0.767833
	29.755000	0.787566
	29.760000	0.840185
	29.765000	0.823742
	29.770000	0.771122
	29.775000	0.784277
	29.780000	0.840185
	29.785000	0.823742
	29.790000	0.767833
	29.795000	0.787566
	29.800000	0.836897
	29.805000	0.820453
	29.810000	0.767833
	29.815000	0.784277
	29.820000	0.840185
	29.825000	0.820453
	29.830000	0.771122
	29.835000	0.784277
	29.840000	0.836897
	29.845000	0.820453
	29.850000	0.771122
	29.855000	0.784277
	29.860000	0.836897
	29.865000	0.823742
	29.870000	0.774411
	29.875000	0.784277
	29.880000	0.840185
	29.885000	0.820453
	29.890000	0.767833
	29.895000	0.780988
	29.900000	0.836897
	29.905000	0.823742
	29.910000	0.767833
	29.915000	0.787566
	29.920000	0.836897
	29.925000	0.823742
	29.930000	0.771122
	29.935000	0.784277
	29.940000	0.843474
	29.945000	0.823742
	29.950000	0.774411
	29.955000	0.780988
	29.960000	0.833608
	29.965000	0.820453
	29.970000	0.767833
	29.975000	0.787566
	29.980000	0.840185
	29.985000	0.820453
	29.990000	0.771122
	29.995000	0.790854
	30.000000	0.840185
	30.005000	0.823742
	30.010000	0.771122
	30.015000	0.787566
	30.020000	0.833608
	30.025000	0.827030
	30.030000	0.767833
	30.035000	0.784277
	30.040000	0.833608
	30.045000	0.827030
	30.050000	0.767833
	30.055000	0.784277
	30.060000	0.836897
	30.065000	0.823742
	30.070000	0.774411
	30.075000	0.780988
	30.080000	0.840185
	30.085000	0.823742
	30.090000	0.767833
	30.095000	0.784277
	30.100000	0.836897
	30.105000	0.820453
	30.110000	0.771122
	30.115000	0.787566
	30.120000	0.836897
	30.125000	0.827030
	30.130000	0.774411
	30.135000	0.787566
	30.140000	0.836897
	30.145000	0.820453
	30.150000	0.774411
	30.155000	0.784277
	30.160000	0.840185
	30.165000	0.827030
	30.170000	0.771122
	30.175000	0.787566
	30.180000	0.840185
	30.185000	0.827030
	30.190000	0.774411
	30.195000	0.787566
	30.200000	0.840185
	30.205000	0.827030
	30.210000	0.771122
	30.215000	0.784277
	30.220000	0.840185
	30.225000	0.827030
	30.230000	0.771122
	30.235000	0.784277
	30.240000	0.843474
	30.245000	0.827030
	30.250000	0.777700
	30.255000	0.787566
	30.260000	0.843474
	30.265000	0.827030
	30.270000	0.774411
	30.275000	0.787566
	30.280000	0.843474
	30.285000	0.827030
	30.290000	0.774411
	30.295000	0.794143
	30.300000	0.840185
	30.305000	0.823742
	30.310000	0.774411
	30.315000	0.790854
	30.320000	0.840185
	30.325000	0.830319
	30.330000	0.774411
	30.335000	0.787566
	30.340000	0.843474
	30.345000	0.827030
	30.350000	0.777700
	30.355000	0.787566
	30.360000	0.836897
	30.365000	0.827030
	30.370000	0.774411
	30.375000	0.790854
	30.380000	0.843474
	30.385000	0.827030
	30.390000	0.774411
	30.395000	0.787566
	30.400000	0.840185
	30.405000	0.823742
	30.410000	0.774411
	30.415000	0.790854
	30.420000	0.843474
	30.425000	0.823742
	30.430000	0.771122
	30.435000	0.790854
	30.440000	0.843474
	30.445000	0.823742
	30.450000	0.777700
	30.455000	0.790854
	30.460000	0.843474
	30.465000	0.823742
	30.470000	0.774411
	30.475000	0.790854
	30.480000	0.840185
	30.485000	0.827030
	30.490000	0.774411
	30.495000	0.790854
	30.500000	0.843474
	30.505000	0.827030
	30.510000	0.774411
	30.515000	0.790854
	30.520000	0.840185
	30.525000	0.827030
	30.530000	0.771122
	30.535000	0.790854
	30.540000	0.843474
	30.545000	0.827030
	30.550000	0.774411
	30.555000	0.787566
	30.560000	0.836897
	30.565000	0.827030
	30.570000	0.780988
	30.575000	0.790854
	30.580000	0.843474
	30.585000	0.827030
	30.590000	0.771122
	30.595000	0.794143
	30.600000	0.843474
	30.605000	0.823742
	30.610000	0.777700
	30.615000	0.787566
	30.620000	0.843474
	30.625000	0.827030
	30.630000	0.777700
	30.635000	0.794143
	30.640000	0.843474
	30.645000	0.830319
	30.650000	0.774411
	30.655000	0.790854
	30.660000	0.843474
	30.665000	0.830319
	30.670000	0.774411
	30.675000	0.790854
	30.680000	0.843474
	30.685000	0.827030
	30.690000	0.774411
	30.695000	0.800721
	30.700000	0.843474
	30.705000	0.830319
	30.710000	0.777700
	30.715000	0.794143
	30.720000	0.843474
	30.725000	0.830319
	30.730000	0.787566
	30.735000	0.794143
	30.740000	0.846763
	30.745000	0.830319
	30.750000	0.777700
	30.755000	0.797432
	30.760000	0.843474
	30.765000	0.830319
	30.770000	0.780988
	30.775000	0.790854
	30.780000	0.846763
	30.785000	0.827030
	30.790000	0.774411
	30.795000	0.794143
	30.800000	0.846763
	30.805000	0.833608
	30.810000	0.777700
	30.815000	0.790854
	30.820000	0.846763
	30.825000	0.827030
	30.830000	0.774411
	30.835000	0.790854
	30.840000	0.846763
	30.845000	0.830319
	30.850000	0.774411
	30.855000	0.797432
	30.860000	0.850051
	30.865000	0.830319
	30.870000	0.777700
	30.875000	0.797432
	30.880000	0.850051
	30.885000	0.830319
	30.890000	0.774411
	30.895000	0.800721
	30.900000	0.843474
	30.905000	0.827030
	30.910000	0.774411
	30.915000	0.794143
	30.920000	0.843474
	30.925000	0.827030
	30.930000	0.774411
	30.935000	0.790854
	30.940000	0.843474
	30.945000	0.827030
	30.950000	0.774411
	30.955000	0.794143
	30.960000	0.840185
	30.965000	0.827030
	30.970000	0.777700
	30.975000	0.794143
	30.980000	0.846763
	30.985000	0.827030
	30.990000	0.780988
	30.995000	0.794143
	31.000000	0.843474
	31.005000	0.833608
	31.010000	0.774411
	31.015000	0.790854
	31.020000	0.846763
	31.025000	0.833608
	31.030000	0.780988
	31.035000	0.790854
	31.040000	0.846763
	31.045000	0.830319
	31.050000	0.777700
	31.055000	0.797432
	31.060000	0.843474
	31.065000	0.833608
	31.070000	0.774411
	31.075000	0.797432
	31.080000	0.846763
	31.085000	0.830319
	31.090000	0.777700
	31.095000	0.794143
	31.100000	0.846763
	31.105000	0.830319
	31.110000	0.774411
	31.115000	0.790854
	31.120000	0.843474
	31.125000	0.830319
	31.130000	0.780988
	31.135000	0.794143
	31.140000	0.846763
	31.145000	0.827030
	31.150000	0.774411
	31.155000	0.797432
	31.160000	0.843474
	31.165000	0.830319
	31.170000	0.780988
	31.175000	0.794143
	31.180000	0.846763
	31.185000	0.833608
	31.190000	0.777700
	31.195000	0.794143
	31.200000	0.846763
	31.205000	0.833608
	31.210000	0.780988
	31.215000	0.794143
	31.220000	0.843474
	31.225000	0.830319
	31.230000	0.777700
	31.235000	0.794143
	31.240000	0.853340
	31.245000	0.823742
	31.250000	0.774411
	31.255000	0.797432
	31.260000	0.843474
	31.265000	0.830319
	31.270000	0.777700
	31.275000	0.794143
	31.280000	0.846763
	31.285000	0.827030
	31.290000	0.777700
	31.295000	0.797432
	31.300000	0.843474
	31.305000	0.827030
	31.310000	0.777700
	31.315000	0.794143
	31.320000	0.846763
	31.325000	0.827030
	31.330000	0.777700
	31.335000	0.797432
	31.340000	0.843474
	31.345000	0.830319
	31.350000	0.780988
	31.355000	0.790854
	31.360000	0.846763
	31.365000	0.830319
	31.370000	0.774411
	31.375000	0.794143
	31.380000	0.840185
	31.385000	0.827030
	31.390000	0.774411
	31.395000	0.794143
	31.400000	0.843474
	31.405000	0.827030
	31.410000	0.780988
	31.415000	0.797432
	31.420000	0.846763
	31.425000	0.830319
	31.430000	0.780988
	31.435000	0.800721
	31.440000	0.850051
	31.445000	0.827030
	31.450000	0.777700
	31.455000	0.797432
	31.460000	0.853340
	31.465000	0.827030
	31.470000	0.780988
	31.475000	0.790854
	31.480000	0.846763
	31.485000	0.827030
	31.490000	0.777700
	31.495000	0.790854
	31.500000	0.843474
	31.505000	0.830319
	31.510000	0.777700
	31.515000	0.790854
	31.520000	0.843474
	31.525000	0.827030
	31.530000	0.774411
	31.535000	0.794143
	31.540000	0.850051
	31.545000	0.830319
	31.550000	0.774411
	31.555000	0.790854
	31.560000	0.846763
	31.565000	0.833608
	31.570000	0.777700
	31.575000	0.797432
	31.580000	0.843474
	31.585000	0.830319
	31.590000	0.777700
	31.595000	0.800721
	31.600000	0.850051
	31.605000	0.830319
	31.610000	0.777700
	31.615000	0.797432
	31.620000	0.853340
	31.625000	0.830319
	31.630000	0.780988
	31.635000	0.800721
	31.640000	0.856629
	31.645000	0.830319
	31.650000	0.780988
	31.655000	0.800721
	31.660000	0.846763
	31.665000	0.833608
	31.670000	0.777700
	31.675000	0.800721
	31.680000	0.853340
	31.685000	0.833608
	31.690000	0.784277
	31.695000	0.797432
	31.700000	0.853340
	31.705000	0.830319
	31.710000	0.774411
	31.715000	0.800721
	31.720000	0.846763
	31.725000	0.833608
	31.730000	0.780988
	31.735000	0.797432
	31.740000	0.846763
	31.745000	0.830319
	31.750000	0.780988
	31.755000	0.800721
	31.760000	0.846763
	31.765000	0.833608
	31.770000	0.777700
	31.775000	0.797432
	31.780000	0.853340
	31.785000	0.833608
	31.790000	0.780988
	31.795000	0.797432
	31.800000	0.850051
	31.805000	0.833608
	31.810000	0.780988
	31.815000	0.800721
	31.820000	0.856629
	31.825000	0.836897
	31.830000	0.777700
	31.835000	0.800721
	31.840000	0.853340
	31.845000	0.836897
	31.850000	0.780988
	31.855000	0.804009
	31.860000	0.853340
	31.865000	0.833608
	31.870000	0.784277
	31.875000	0.807298
	31.880000	0.859918
	31.885000	0.836897
	31.890000	0.780988
	31.895000	0.804009
	31.900000	0.856629
	31.905000	0.833608
	31.910000	0.784277
	31.915000	0.804009
	31.920000	0.850051
	31.925000	0.836897
	31.930000	0.784277
	31.935000	0.800721
	31.940000	0.856629
	31.945000	0.836897
	31.950000	0.784277
	31.955000	0.800721
	31.960000	0.853340
	31.965000	0.833608
	31.970000	0.787566
	31.975000	0.807298
	31.980000	0.859918
	31.985000	0.840185
	31.990000	0.784277
	31.995000	0.800721
	32.000000	0.856629
	32.005000	0.836897
	32.010000	0.787566
	32.015000	0.807298
	32.020000	0.859918
	32.025000	0.840185
	32.030000	0.787566
	32.035000	0.810587
	32.040000	0.863206
	32.045000	0.843474
	32.050000	0.790854
	32.055000	0.810587
	32.060000	0.863206
	32.065000	0.843474
	32.070000	0.790854
	32.075000	0.817164
	32.080000	0.866495
	32.085000	0.843474
	32.090000	0.797432
	32.095000	0.813876
	32.100000	0.863206
	32.105000	0.843474
	32.110000	0.794143
	32.115000	0.813876
	32.120000	0.866495
	32.125000	0.846763
	32.130000	0.794143
	32.135000	0.817164
	32.140000	0.869784
	32.145000	0.846763
	32.150000	0.794143
	32.155000	0.817164
	32.160000	0.866495
	32.165000	0.846763
	32.170000	0.797432
	32.175000	0.813876
	32.180000	0.866495
	32.185000	0.846763
	32.190000	0.794143
	32.195000	0.813876
	32.200000	0.866495
	32.205000	0.843474
	32.210000	0.794143
	32.215000	0.813876
	32.220000	0.869784
	32.225000	0.843474
	32.230000	0.790854
	32.235000	0.813876
	32.240000	0.866495
	32.245000	0.843474
	32.250000	0.797432
	32.255000	0.813876
	32.260000	0.866495
	32.265000	0.840185
	32.270000	0.790854
	32.275000	0.807298
	32.280000	0.856629
	32.285000	0.836897
	32.290000	0.787566
	32.295000	0.807298
	32.300000	0.853340
	32.305000	0.836897
	32.310000	0.777700
	32.315000	0.794143
	32.320000	0.846763
	32.325000	0.830319
	32.330000	0.774411
	32.335000	0.794143
	32.340000	0.843474
	32.345000	0.823742
	32.350000	0.774411
	32.355000	0.794143
	32.360000	0.846763
	32.365000	0.827030
	32.370000	0.777700
	32.375000	0.794143
	32.380000	0.853340
	32.385000	0.823742
	32.390000	0.777700
	32.395000	0.794143
	32.400000	0.850051
	32.405000	0.827030
	32.410000	0.777700
	32.415000	0.797432
	32.420000	0.850051
	32.425000	0.827030
	32.430000	0.777700
	32.435000	0.800721
	32.440000	0.840185
	32.445000	0.823742
	32.450000	0.774411
	32.455000	0.790854
	32.460000	0.843474
	32.465000	0.820453
	32.470000	0.764545
	32.475000	0.787566
	32.480000	0.840185
	32.485000	0.813876
	32.490000	0.761256
	32.495000	0.787566
	32.500000	0.840185
	32.505000	0.813876
	32.510000	0.754679
	32.515000	0.777700
	32.520000	0.833608
	32.525000	0.810587
	32.530000	0.757967
	32.535000	0.777700
	32.540000	0.830319
	32.545000	0.807298
	32.550000	0.754679
	32.555000	0.777700
	32.560000	0.830319
	32.565000	0.807298
	32.570000	0.757967
	32.575000	0.780988
	32.580000	0.830319
	32.585000	0.810587
	32.590000	0.754679
	32.595000	0.777700
	32.600000	0.830319
	32.605000	0.810587
	32.610000	0.751390
	32.615000	0.777700
	32.620000	0.836897
	32.625000	0.813876
	32.630000	0.761256
	32.635000	0.780988
	32.640000	0.836897
	32.645000	0.820453
	32.650000	0.761256
	32.655000	0.784277
	32.660000	0.843474
	32.665000	0.823742
	32.670000	0.771122
	32.675000	0.800721
	32.680000	0.850051
	32.685000	0.827030
	32.690000	0.777700
	32.695000	0.804009
	32.700000	0.856629
	32.705000	0.843474
	32.710000	0.787566
	32.715000	0.813876
	32.720000	0.869784
	32.725000	0.850051
	32.730000	0.790854
	32.735000	0.817164
	32.740000	0.869784
	32.745000	0.850051
	32.750000	0.800721
	32.755000	0.820453
	32.760000	0.869784
	32.765000	0.850051
	32.770000	0.794143
	32.775000	0.810587
	32.780000	0.863206
	32.785000	0.840185
	32.790000	0.777700
	32.795000	0.797432
	32.800000	0.843474
	32.805000	0.817164
	32.810000	0.761256
	32.815000	0.777700
	32.820000	0.823742
	32.825000	0.800721
	32.830000	0.744812
	32.835000	0.764545
	32.840000	0.823742
	32.845000	0.794143
	32.850000	0.744812
	32.855000	0.767833
	32.860000	0.817164
	32.865000	0.794143
	32.870000	0.744812
	32.875000	0.764545
	32.880000	0.817164
	32.885000	0.797432
	32.890000	0.748101
	32.895000	0.767833
	32.900000	0.817164
	32.905000	0.797432
	32.910000	0.741524
	32.915000	0.771122
	32.920000	0.823742
	32.925000	0.794143
	32.930000	0.748101
	32.935000	0.767833
	32.940000	0.817164
	32.945000	0.797432
	32.950000	0.744812
	32.955000	0.771122
	32.960000	0.820453
	32.965000	0.797432
	32.970000	0.744812
	32.975000	0.767833
	32.980000	0.820453
	32.985000	0.800721
	32.990000	0.741524
	32.995000	0.774411
	33.000000	0.820453
	33.005000	0.800721
	33.010000	0.748101
	33.015000	0.767833
	33.020000	0.827030
	33.025000	0.797432
	33.030000	0.751390
	33.035000	0.771122
	33.040000	0.823742
	33.045000	0.804009
	33.050000	0.751390
	33.055000	0.777700
	33.060000	0.827030
	33.065000	0.800721
	33.070000	0.754679
	33.075000	0.774411
	33.080000	0.823742
	33.085000	0.807298
	33.090000	0.751390
	33.095000	0.774411
	33.100000	0.830319
	33.105000	0.807298
	33.110000	0.754679
	33.115000	0.777700
	33.120000	0.830319
	33.125000	0.804009
	33.130000	0.757967
	33.135000	0.784277
	33.140000	0.833608
	33.145000	0.810587
	33.150000	0.764545
	33.155000	0.784277
	33.160000	0.833608
	33.165000	0.813876
	33.170000	0.764545
	33.175000	0.787566
	33.180000	0.833608
	33.185000	0.813876
	33.190000	0.764545
	33.195000	0.787566
	33.200000	0.840185
	33.205000	0.810587
	33.210000	0.767833
	33.215000	0.790854
	33.220000	0.836897
	33.225000	0.813876
	33.230000	0.767833
	33.235000	0.787566
	33.240000	0.843474
	33.245000	0.817164
	33.250000	0.767833
	33.255000	0.794143
	33.260000	0.840185
	33.265000	0.817164
	33.270000	0.771122
	33.275000	0.797432
	33.280000	0.843474
	33.285000	0.820453
	33.290000	0.771122
	33.295000	0.794143
	33.300000	0.840185
	33.305000	0.820453
	33.310000	0.771122
	33.315000	0.794143
	33.320000	0.840185
	33.325000	0.827030
	33.330000	0.767833
	33.335000	0.794143
	33.340000	0.843474
	33.345000	0.820453
	33.350000	0.771122
	33.355000	0.794143
	33.360000	0.843474
	33.365000	0.817164
	33.370000	0.771122
	33.375000	0.797432
	33.380000	0.840185
	33.385000	0.817164
	33.390000	0.771122
	33.395000	0.794143
	33.400000	0.840185
	33.405000	0.823742
	33.410000	0.767833
	33.415000	0.794143
	33.420000	0.840185
	33.425000	0.820453
	33.430000	0.771122
	33.435000	0.797432
	33.440000	0.840185
	33.445000	0.817164
	33.450000	0.774411
	33.455000	0.800721
	33.460000	0.843474
	33.465000	0.817164
	33.470000	0.771122
	33.475000	0.794143
	33.480000	0.840185
	33.485000	0.820453
	33.490000	0.771122
	33.495000	0.794143
	33.500000	0.840185
	33.505000	0.817164
	33.510000	0.771122
	33.515000	0.790854
	33.520000	0.840185
	33.525000	0.817164
	33.530000	0.767833
	33.535000	0.790854
	33.540000	0.840185
	33.545000	0.813876
	33.550000	0.764545
	33.555000	0.790854
	33.560000	0.840185
	33.565000	0.817164
	33.570000	0.767833
	33.575000	0.794143
	33.580000	0.836897
	33.585000	0.817164
	33.590000	0.771122
	33.595000	0.794143
	33.600000	0.840185
	33.605000	0.810587
	33.610000	0.767833
	33.615000	0.790854
	33.620000	0.846763
	33.625000	0.820453
	33.630000	0.767833
	33.635000	0.797432
	33.640000	0.840185
	33.645000	0.810587
	33.650000	0.764545
	33.655000	0.790854
	33.660000	0.836897
	33.665000	0.820453
	33.670000	0.767833
	33.675000	0.790854
	33.680000	0.840185
	33.685000	0.813876
	33.690000	0.767833
	33.695000	0.790854
	33.700000	0.843474
	33.705000	0.813876
	33.710000	0.771122
	33.715000	0.794143
	33.720000	0.843474
	33.725000	0.813876
	33.730000	0.774411
	33.735000	0.794143
	33.740000	0.843474
	33.745000	0.817164
	33.750000	0.774411
	33.755000	0.794143
	33.760000	0.846763
	33.765000	0.817164
	33.770000	0.771122
	33.775000	0.797432
	33.780000	0.850051
	33.785000	0.817164
	33.790000	0.771122
	33.795000	0.797432
	33.800000	0.846763
	33.805000	0.817164
	33.810000	0.767833
	33.815000	0.797432
	33.820000	0.846763
	33.825000	0.820453
	33.830000	0.771122
	33.835000	0.794143
	33.840000	0.846763
	33.845000	0.817164
	33.850000	0.771122
	33.855000	0.790854
	33.860000	0.843474
	33.865000	0.820453
	33.870000	0.767833
	33.875000	0.797432
	33.880000	0.846763
	33.885000	0.820453
	33.890000	0.771122
	33.895000	0.800721
	33.900000	0.843474
	33.905000	0.817164
	33.910000	0.771122
	33.915000	0.800721
	33.920000	0.843474
	33.925000	0.817164
	33.930000	0.764545
	33.935000	0.797432
	33.940000	0.843474
	33.945000	0.820453
	33.950000	0.777700
	33.955000	0.797432
	33.960000	0.846763
	33.965000	0.820453
	33.970000	0.774411
	33.975000	0.794143
	33.980000	0.843474
	33.985000	0.820453
	33.990000	0.774411
	33.995000	0.797432
	34.000000	0.843474
	34.005000	0.820453
	34.010000	0.774411
	34.015000	0.804009
	34.020000	0.846763
	34.025000	0.823742
	34.030000	0.777700
	34.035000	0.800721
	34.040000	0.846763
	34.045000	0.823742
	34.050000	0.777700
	34.055000	0.800721
	34.060000	0.853340
	34.065000	0.820453
	34.070000	0.774411
	34.075000	0.800721
	34.080000	0.843474
	34.085000	0.820453
	34.090000	0.777700
	34.095000	0.800721
	34.100000	0.846763
	34.105000	0.823742
	34.110000	0.771122
	34.115000	0.797432
	34.120000	0.843474
	34.125000	0.820453
	34.130000	0.771122
	34.135000	0.794143
	34.140000	0.843474
	34.145000	0.820453
	34.150000	0.774411
	34.155000	0.800721
	34.160000	0.843474
	34.165000	0.820453
	34.170000	0.774411
	34.175000	0.797432
	34.180000	0.850051
	34.185000	0.817164
	34.190000	0.777700
	34.195000	0.800721
	34.200000	0.846763
	34.205000	0.820453
	34.210000	0.767833
	34.215000	0.804009
	34.220000	0.846763
	34.225000	0.820453
	34.230000	0.774411
	34.235000	0.800721
	34.240000	0.846763
	34.245000	0.820453
	34.250000	0.764545
	34.255000	0.800721
	34.260000	0.840185
	34.265000	0.817164
	34.270000	0.774411
	34.275000	0.800721
	34.280000	0.850051
	34.285000	0.823742
	34.290000	0.774411
	34.295000	0.797432
	34.300000	0.850051
	34.305000	0.817164
	34.310000	0.767833
	34.315000	0.797432
	34.320000	0.846763
	34.325000	0.823742
	34.330000	0.771122
	34.335000	0.804009
	34.340000	0.846763
	34.345000	0.817164
	34.350000	0.777700
	34.355000	0.800721
	34.360000	0.846763
	34.365000	0.820453
	34.370000	0.777700
	34.375000	0.797432
	34.380000	0.843474
	34.385000	0.820453
	34.390000	0.777700
	34.395000	0.800721
	34.400000	0.850051
	34.405000	0.820453
	34.410000	0.774411
	34.415000	0.800721
	34.420000	0.843474
	34.425000	0.820453
	34.430000	0.774411
	34.435000	0.804009
	34.440000	0.846763
	34.445000	0.817164
	34.450000	0.774411
	34.455000	0.804009
	34.460000	0.846763
	34.465000	0.820453
	34.470000	0.771122
	34.475000	0.800721
	34.480000	0.843474
	34.485000	0.820453
	34.490000	0.777700
	34.495000	0.800721
	34.500000	0.850051
	34.505000	0.817164
	34.510000	0.774411
	34.515000	0.804009
	34.520000	0.846763
	34.525000	0.820453
	34.530000	0.774411
	34.535000	0.800721
	34.540000	0.850051
	34.545000	0.820453
	34.550000	0.774411
	34.555000	0.800721
	34.560000	0.846763
	34.565000	0.817164
	34.570000	0.774411
	34.575000	0.797432
	34.580000	0.846763
	34.585000	0.820453
	34.590000	0.774411
	34.595000	0.800721
	34.600000	0.846763
	34.605000	0.823742
	34.610000	0.777700
	34.615000	0.804009
	34.620000	0.853340
	34.625000	0.823742
	34.630000	0.774411
	34.635000	0.807298
	34.640000	0.850051
	34.645000	0.817164
	34.650000	0.777700
	34.655000	0.804009
	34.660000	0.850051
	34.665000	0.820453
	34.670000	0.774411
	34.675000	0.807298
	34.680000	0.853340
	34.685000	0.823742
	34.690000	0.777700
	34.695000	0.804009
	34.700000	0.846763
	34.705000	0.823742
	34.710000	0.774411
	34.715000	0.804009
	34.720000	0.846763
	34.725000	0.817164
	34.730000	0.774411
	34.735000	0.804009
	34.740000	0.850051
	34.745000	0.823742
	34.750000	0.774411
	34.755000	0.804009
	34.760000	0.853340
	34.765000	0.820453
	34.770000	0.777700
	34.775000	0.804009
	34.780000	0.850051
	34.785000	0.820453
	34.790000	0.777700
	34.795000	0.810587
	34.800000	0.856629
	34.805000	0.827030
	34.810000	0.777700
	34.815000	0.807298
	34.820000	0.856629
	34.825000	0.820453
	34.830000	0.774411
	34.835000	0.804009
	34.840000	0.850051
	34.845000	0.823742
	34.850000	0.780988
	34.855000	0.807298
	34.860000	0.853340
	34.865000	0.820453
	34.870000	0.780988
	34.875000	0.804009
	34.880000	0.856629
	34.885000	0.820453
	34.890000	0.777700
	34.895000	0.807298
	34.900000	0.853340
	34.905000	0.817164
	34.910000	0.777700
	34.915000	0.800721
	34.920000	0.850051
	34.925000	0.823742
	34.930000	0.774411
	34.935000	0.800721
	34.940000	0.853340
	34.945000	0.820453
	34.950000	0.780988
	34.955000	0.807298
	34.960000	0.846763
	34.965000	0.820453
	34.970000	0.777700
	34.975000	0.807298
	34.980000	0.856629
	34.985000	0.820453
	34.990000	0.777700
	34.995000	0.807298
	35.000000	0.853340
	35.005000	0.817164
	35.010000	0.774411
	35.015000	0.807298
	35.020000	0.853340
	35.025000	0.817164
	35.030000	0.774411
	35.035000	0.800721
	35.040000	0.853340
	35.045000	0.827030
	35.050000	0.777700
	35.055000	0.804009
	35.060000	0.850051
	35.065000	0.813876
	35.070000	0.774411
	35.075000	0.807298
	35.080000	0.853340
	35.085000	0.820453
	35.090000	0.771122
	35.095000	0.807298
	35.100000	0.853340
	35.105000	0.820453
	35.110000	0.777700
	35.115000	0.804009
	35.120000	0.853340
	35.125000	0.820453
	35.130000	0.777700
	35.135000	0.804009
	35.140000	0.853340
	35.145000	0.823742
	35.150000	0.780988
	35.155000	0.807298
	35.160000	0.853340
	35.165000	0.820453
	35.170000	0.774411
	35.175000	0.810587
	35.180000	0.853340
	35.185000	0.817164
	35.190000	0.777700
	35.195000	0.810587
	35.200000	0.850051
	35.205000	0.823742
	35.210000	0.774411
	35.215000	0.807298
	35.220000	0.853340
	35.225000	0.820453
	35.230000	0.774411
	35.235000	0.810587
	35.240000	0.846763
	35.245000	0.823742
	35.250000	0.777700
	35.255000	0.804009
	35.260000	0.850051
	35.265000	0.817164
	35.270000	0.774411
	35.275000	0.807298
	35.280000	0.850051
	35.285000	0.820453
	35.290000	0.777700
	35.295000	0.804009
	35.300000	0.853340
	35.305000	0.820453
	35.310000	0.771122
	35.315000	0.804009
	35.320000	0.850051
	35.325000	0.817164
	35.330000	0.777700
	35.335000	0.807298
	35.340000	0.853340
	35.345000	0.820453
	35.350000	0.777700
	35.355000	0.804009
	35.360000	0.853340
	35.365000	0.820453
	35.370000	0.774411
	35.375000	0.810587
	35.380000	0.853340
	35.385000	0.817164
	35.390000	0.771122
	35.395000	0.804009
	35.400000	0.856629
	35.405000	0.820453
	35.410000	0.771122
	35.415000	0.807298
	35.420000	0.853340
	35.425000	0.820453
	35.430000	0.774411
	35.435000	0.810587
	35.440000	0.846763
	35.445000	0.817164
	35.450000	0.774411
	35.455000	0.807298
	35.460000	0.853340
	35.465000	0.827030
	35.470000	0.777700
	35.475000	0.810587
	35.480000	0.856629
	35.485000	0.823742
	35.490000	0.780988
	35.495000	0.810587
	35.500000	0.853340
	35.505000	0.820453
	35.510000	0.777700
	35.515000	0.813876
	35.520000	0.853340
	35.525000	0.820453
	35.530000	0.777700
	35.535000	0.810587
	35.540000	0.856629
	35.545000	0.820453
	35.550000	0.774411
	35.555000	0.807298
	35.560000	0.853340
	35.565000	0.823742
	35.570000	0.777700
	35.575000	0.804009
	35.580000	0.853340
	35.585000	0.817164
	35.590000	0.780988
	35.595000	0.807298
	35.600000	0.853340
	35.605000	0.817164
	35.610000	0.777700
	35.615000	0.807298
	35.620000	0.853340
	35.625000	0.820453
	35.630000	0.774411
	35.635000	0.810587
	35.640000	0.856629
	35.645000	0.820453
	35.650000	0.777700
	35.655000	0.807298
	35.660000	0.856629
	35.665000	0.817164
	35.670000	0.780988
	35.675000	0.810587
	35.680000	0.856629
	35.685000	0.823742
	35.690000	0.780988
	35.695000	0.807298
	35.700000	0.853340
	35.705000	0.820453
	35.710000	0.780988
	35.715000	0.813876
	35.720000	0.856629
	35.725000	0.820453
	35.730000	0.777700
	35.735000	0.810587
	35.740000	0.853340
	35.745000	0.823742
	35.750000	0.777700
	35.755000	0.810587
	35.760000	0.856629
	35.765000	0.820453
	35.770000	0.780988
	35.775000	0.810587
	35.780000	0.856629
	35.785000	0.817164
	35.790000	0.777700
	35.795000	0.810587
	35.800000	0.853340
	35.805000	0.827030
	35.810000	0.777700
	35.815000	0.807298
	35.820000	0.853340
	35.825000	0.823742
	35.830000	0.777700
	35.835000	0.810587
	35.840000	0.859918
	35.845000	0.820453
	35.850000	0.777700
	35.855000	0.813876
	35.860000	0.859918
	35.865000	0.827030
	35.870000	0.784277
	35.875000	0.813876
	35.880000	0.856629
	35.885000	0.823742
	35.890000	0.780988
	35.895000	0.817164
	35.900000	0.859918
	35.905000	0.820453
	35.910000	0.780988
	35.915000	0.817164
	35.920000	0.859918
	35.925000	0.823742
	35.930000	0.777700
	35.935000	0.813876
	35.940000	0.856629
	35.945000	0.817164
	35.950000	0.774411
	35.955000	0.810587
	35.960000	0.853340
	35.965000	0.817164
	35.970000	0.774411
	35.975000	0.807298
	35.980000	0.850051
	35.985000	0.813876
	35.990000	0.771122
	35.995000	0.800721
	36.000000	0.843474
	36.005000	0.800721
	36.010000	0.757967
	36.015000	0.790854
	36.020000	0.833608
	36.025000	0.797432
	36.030000	0.754679
	36.035000	0.790854
	36.040000	0.830319
	36.045000	0.800721
	36.050000	0.754679
	36.055000	0.790854
	36.060000	0.830319
	36.065000	0.794143
	36.070000	0.751390
	36.075000	0.787566
	36.080000	0.830319
	36.085000	0.790854
	36.090000	0.748101
	36.095000	0.787566
	36.100000	0.827030
	36.105000	0.787566
	36.110000	0.751390
	36.115000	0.784277
	36.120000	0.827030
	36.125000	0.790854
	36.130000	0.744812
	36.135000	0.780988
	36.140000	0.830319
	36.145000	0.787566
	36.150000	0.748101
	36.155000	0.784277
	36.160000	0.827030
	36.165000	0.784277
	36.170000	0.748101
	36.175000	0.777700
	36.180000	0.820453
	36.185000	0.784277
	36.190000	0.744812
	36.195000	0.784277
	36.200000	0.827030
	36.205000	0.790854
	36.210000	0.741524
	36.215000	0.780988
	36.220000	0.823742
	36.225000	0.787566
	36.230000	0.738235
	36.235000	0.780988
	36.240000	0.827030
	36.245000	0.784277
	36.250000	0.744812
	36.255000	0.787566
	36.260000	0.830319
	36.265000	0.790854
	36.270000	0.748101
	36.275000	0.790854
	36.280000	0.833608
	36.285000	0.797432
	36.290000	0.751390
	36.295000	0.790854
	36.300000	0.836897
	36.305000	0.797432
	36.310000	0.757967
	36.315000	0.794143
	36.320000	0.846763
	36.325000	0.797432
	36.330000	0.754679
	36.335000	0.794143
	36.340000	0.843474
	36.345000	0.804009
	36.350000	0.764545
	36.355000	0.804009
	36.360000	0.850051
	36.365000	0.810587
	36.370000	0.767833
	36.375000	0.810587
	36.380000	0.856629
	36.385000	0.817164
	36.390000	0.780988
	36.395000	0.820453
	36.400000	0.869784
	36.405000	0.830319
	36.410000	0.790854
	36.415000	0.833608
	36.420000	0.879650
	36.425000	0.840185
	36.430000	0.804009
	36.435000	0.843474
	36.440000	0.886227
	36.445000	0.853340
	36.450000	0.800721
	36.455000	0.840185
	36.460000	0.882939
	36.465000	0.840185
	36.470000	0.790854
	36.475000	0.830319
	36.480000	0.869784
	36.485000	0.823742
	36.490000	0.780988
	36.495000	0.813876
	36.500000	0.850051
	36.505000	0.804009
	36.510000	0.748101
	36.515000	0.777700
	36.520000	0.813876
	36.525000	0.771122
	36.530000	0.731657
	36.535000	0.767833
	36.540000	0.810587
	36.545000	0.774411
	36.550000	0.728369
	36.555000	0.767833
	36.560000	0.810587
	36.565000	0.771122
	36.570000	0.731657
	36.575000	0.771122
	36.580000	0.804009
	36.585000	0.774411
	36.590000	0.728369
	36.595000	0.771122
	36.600000	0.813876
	36.605000	0.774411
	36.610000	0.734946
	36.615000	0.771122
	36.620000	0.813876
	36.625000	0.777700
	36.630000	0.738235
	36.635000	0.774411
	36.640000	0.817164
	36.645000	0.780988
	36.650000	0.734946
	36.655000	0.780988
	36.660000	0.820453
	36.665000	0.780988
	36.670000	0.744812
	36.675000	0.780988
	36.680000	0.820453
	36.685000	0.780988
	36.690000	0.744812
	36.695000	0.780988
	36.700000	0.823742
	36.705000	0.784277
	36.710000	0.741524
	36.715000	0.777700
	36.720000	0.823742
	36.725000	0.784277
	36.730000	0.748101
	36.735000	0.777700
	36.740000	0.820453
	36.745000	0.784277
	36.750000	0.748101
	36.755000	0.780988
	36.760000	0.823742
	36.765000	0.790854
	36.770000	0.744812
	36.775000	0.780988
	36.780000	0.823742
	36.785000	0.784277
	36.790000	0.748101
	36.795000	0.784277
	36.800000	0.823742
	36.805000	0.787566
	36.810000	0.751390
	36.815000	0.780988
	36.820000	0.823742
	36.825000	0.784277
	36.830000	0.744812
	36.835000	0.780988
	36.840000	0.830319
	36.845000	0.787566
	36.850000	0.748101
	36.855000	0.784277
	36.860000	0.827030
	36.865000	0.787566
	36.870000	0.751390
	36.875000	0.790854
	36.880000	0.830319
	36.885000	0.790854
	36.890000	0.754679
	36.895000	0.790854
	36.900000	0.827030
	36.905000	0.790854
	36.910000	0.754679
	36.915000	0.794143
	36.920000	0.830319
	36.925000	0.790854
	36.930000	0.757967
	36.935000	0.794143
	36.940000	0.833608
	36.945000	0.797432
	36.950000	0.754679
	36.955000	0.794143
	36.960000	0.833608
	36.965000	0.790854
	36.970000	0.757967
	36.975000	0.794143
	36.980000	0.830319
	36.985000	0.794143
	36.990000	0.757967
	36.995000	0.790854
	37.000000	0.833608
	37.005000	0.794143
	37.010000	0.754679
	37.015000	0.794143
	37.020000	0.833608
	37.025000	0.790854
	37.030000	0.757967
	37.035000	0.797432
	37.040000	0.827030
	37.045000	0.797432
	37.050000	0.757967
	37.055000	0.794143
	37.060000	0.830319
	37.065000	0.794143
	37.070000	0.757967
	37.075000	0.800721
	37.080000	0.833608
	37.085000	0.800721
	37.090000	0.761256
	37.095000	0.794143
	37.100000	0.836897
	37.105000	0.797432
	37.110000	0.757967
	37.115000	0.797432
	37.120000	0.836897
	37.125000	0.794143
	37.130000	0.757967
	37.135000	0.794143
	37.140000	0.836897
	37.145000	0.794143
	37.150000	0.754679
	37.155000	0.797432
	37.160000	0.833608
	37.165000	0.797432
	37.170000	0.754679
	37.175000	0.800721
	37.180000	0.833608
	37.185000	0.794143
	37.190000	0.754679
	37.195000	0.800721
	37.200000	0.833608
	37.205000	0.790854
	37.210000	0.754679
	37.215000	0.797432
	37.220000	0.836897
	37.225000	0.794143
	37.230000	0.757967
	37.235000	0.797432
	37.240000	0.830319
	37.245000	0.794143
	37.250000	0.761256
	37.255000	0.794143
	37.260000	0.833608
	37.265000	0.800721
	37.270000	0.761256
	37.275000	0.797432
	37.280000	0.836897
	37.285000	0.797432
	37.290000	0.757967
	37.295000	0.794143
	37.300000	0.833608
	37.305000	0.794143
	37.310000	0.754679
	37.315000	0.797432
	37.320000	0.833608
	37.325000	0.797432
	37.330000	0.757967
	37.335000	0.797432
	37.340000	0.840185
	37.345000	0.790854
	37.350000	0.761256
	37.355000	0.800721
	37.360000	0.833608
	37.365000	0.790854
	37.370000	0.761256
	37.375000	0.800721
	37.380000	0.833608
	37.385000	0.794143
	37.390000	0.761256
	37.395000	0.797432
	37.400000	0.830319
	37.405000	0.797432
	37.410000	0.761256
	37.415000	0.800721
	37.420000	0.836897
	37.425000	0.797432
	37.430000	0.757967
	37.435000	0.800721
	37.440000	0.840185
	37.445000	0.797432
	37.450000	0.757967
	37.455000	0.800721
	37.460000	0.833608
	37.465000	0.797432
	37.470000	0.757967
	37.475000	0.800721
	37.480000	0.843474
	37.485000	0.800721
	37.490000	0.761256
	37.495000	0.800721
	37.500000	0.840185
	37.505000	0.800721
	37.510000	0.761256
	37.515000	0.807298
	37.520000	0.840185
	37.525000	0.800721
	37.530000	0.757967
	37.535000	0.807298
	37.540000	0.840185
	37.545000	0.804009
	37.550000	0.764545
	37.555000	0.807298
	37.560000	0.846763
	37.565000	0.800721
	37.570000	0.767833
	37.575000	0.807298
	37.580000	0.843474
	37.585000	0.800721
	37.590000	0.764545
	37.595000	0.810587
	37.600000	0.843474
	37.605000	0.800721
	37.610000	0.761256
	37.615000	0.810587
	37.620000	0.843474
	37.625000	0.800721
	37.630000	0.764545
	37.635000	0.807298
	37.640000	0.843474
	37.645000	0.800721
	37.650000	0.761256
	37.655000	0.810587
	37.660000	0.846763
	37.665000	0.800721
	37.670000	0.764545
	37.675000	0.813876
	37.680000	0.846763
	37.685000	0.800721
	37.690000	0.764545
	37.695000	0.810587
	37.700000	0.840185
	37.705000	0.800721
	37.710000	0.767833
	37.715000	0.810587
	37.720000	0.846763
	37.725000	0.797432
	37.730000	0.771122
	37.735000	0.804009
	37.740000	0.840185
	37.745000	0.804009
	37.750000	0.764545
	37.755000	0.810587
	37.760000	0.843474
	37.765000	0.804009
	37.770000	0.764545
	37.775000	0.813876
	37.780000	0.840185
	37.785000	0.797432
	37.790000	0.767833
	37.795000	0.807298
	37.800000	0.846763
	37.805000	0.804009
	37.810000	0.767833
	37.815000	0.813876
	37.820000	0.840185
	37.825000	0.800721
	37.830000	0.767833
	37.835000	0.810587
	37.840000	0.846763
	37.845000	0.804009
	37.850000	0.771122
	37.855000	0.813876
	37.860000	0.853340
	37.865000	0.804009
	37.870000	0.771122
	37.875000	0.813876
	37.880000	0.843474
	37.885000	0.794143
	37.890000	0.767833
	37.895000	0.813876
	37.900000	0.840185
	37.905000	0.800721
	37.910000	0.771122
	37.915000	0.813876
	37.920000	0.843474
	37.925000	0.800721
	37.930000	0.771122
	37.935000	0.813876
	37.940000	0.843474
	37.945000	0.800721
	37.950000	0.767833
	37.955000	0.813876
	37.960000	0.846763
	37.965000	0.800721
	37.970000	0.771122
	37.975000	0.813876
	37.980000	0.843474
	37.985000	0.800721
	37.990000	0.767833
	37.995000	0.807298
	38.000000	0.846763
	38.005000	0.804009
	38.010000	0.764545
	38.015000	0.813876
	38.020000	0.846763
	38.025000	0.800721
	38.030000	0.771122
	38.035000	0.817164
	38.040000	0.843474
	38.045000	0.800721
	38.050000	0.771122
	38.055000	0.813876
	38.060000	0.843474
	38.065000	0.800721
	38.070000	0.771122
	38.075000	0.813876
	38.080000	0.846763
	38.085000	0.800721
	38.090000	0.764545
	38.095000	0.810587
	38.100000	0.850051
	38.105000	0.800721
	38.110000	0.774411
	38.115000	0.817164
	38.120000	0.843474
	38.125000	0.800721
	38.130000	0.767833
	38.135000	0.813876
	38.140000	0.846763
	38.145000	0.804009
	38.150000	0.774411
	38.155000	0.813876
	38.160000	0.843474
	38.165000	0.800721
	38.170000	0.771122
	38.175000	0.813876
	38.180000	0.846763
	38.185000	0.804009
	38.190000	0.774411
	38.195000	0.817164
	38.200000	0.843474
	38.205000	0.804009
	38.210000	0.771122
	38.215000	0.813876
	38.220000	0.840185
	38.225000	0.800721
	38.230000	0.771122
	38.235000	0.810587
	38.240000	0.846763
	38.245000	0.797432
	38.250000	0.767833
	38.255000	0.817164
	38.260000	0.843474
	38.265000	0.800721
	38.270000	0.767833
	38.275000	0.820453
	38.280000	0.850051
	38.285000	0.800721
	38.290000	0.771122
	38.295000	0.813876
	38.300000	0.843474
	38.305000	0.800721
	38.310000	0.771122
	38.315000	0.813876
	38.320000	0.840185
	38.325000	0.804009
	38.330000	0.767833
	38.335000	0.813876
	38.340000	0.846763
	38.345000	0.800721
	38.350000	0.771122
	38.355000	0.817164
	38.360000	0.846763
	38.365000	0.800721
	38.370000	0.767833
	38.375000	0.817164
	38.380000	0.846763
	38.385000	0.797432
	38.390000	0.774411
	38.395000	0.820453
	38.400000	0.846763
	38.405000	0.800721
	38.410000	0.771122
	38.415000	0.817164
	38.420000	0.846763
	38.425000	0.800721
	38.430000	0.774411
	38.435000	0.817164
	38.440000	0.843474
	38.445000	0.794143
	38.450000	0.771122
	38.455000	0.817164
	38.460000	0.846763
	38.465000	0.800721
	38.470000	0.774411
	38.475000	0.813876
	38.480000	0.850051
	38.485000	0.800721
	38.490000	0.774411
	38.495000	0.817164
	38.500000	0.846763
	38.505000	0.800721
	38.510000	0.774411
	38.515000	0.817164
	38.520000	0.843474
	38.525000	0.800721
	38.530000	0.771122
	38.535000	0.817164
	38.540000	0.853340
	38.545000	0.797432
	38.550000	0.774411
	38.555000	0.820453
	38.560000	0.846763
	38.565000	0.800721
	38.570000	0.767833
	38.575000	0.817164
	38.580000	0.843474
	38.585000	0.800721
	38.590000	0.774411
	38.595000	0.817164
	38.600000	0.846763
	38.605000	0.800721
	38.610000	0.771122
	38.615000	0.820453
	38.620000	0.846763
	38.625000	0.800721
	38.630000	0.774411
	38.635000	0.817164
	38.640000	0.850051
	38.645000	0.800721
	38.650000	0.774411
	38.655000	0.820453
	38.660000	0.846763
	38.665000	0.797432
	38.670000	0.771122
	38.675000	0.820453
	38.680000	0.850051
	38.685000	0.800721
	38.690000	0.771122
	38.695000	0.817164
	38.700000	0.846763
	38.705000	0.800721
	38.710000	0.771122
	38.715000	0.820453
	38.720000	0.843474
	38.725000	0.800721
	38.730000	0.774411
	38.735000	0.820453
	38.740000	0.846763
	38.745000	0.800721
	38.750000	0.767833
	38.755000	0.820453
	38.760000	0.843474
	38.765000	0.800721
	38.770000	0.774411
	38.775000	0.823742
	38.780000	0.853340
	38.785000	0.800721
	38.790000	0.771122
	38.795000	0.820453
	38.800000	0.850051
	38.805000	0.797432
	38.810000	0.774411
	38.815000	0.820453
	38.820000	0.846763
	38.825000	0.800721
	38.830000	0.771122
	38.835000	0.820453
	38.840000	0.850051
	38.845000	0.800721
	38.850000	0.777700
	38.855000	0.827030
	38.860000	0.850051
	38.865000	0.804009
	38.870000	0.777700
	38.875000	0.820453
	38.880000	0.853340
	38.885000	0.800721
	38.890000	0.777700
	38.895000	0.823742
	38.900000	0.850051
	38.905000	0.800721
	38.910000	0.780988
	38.915000	0.823742
	38.920000	0.853340
	38.925000	0.797432
	38.930000	0.777700
	38.935000	0.823742
	38.940000	0.850051
	38.945000	0.800721
	38.950000	0.774411
	38.955000	0.823742
	38.960000	0.846763
	38.965000	0.800721
	38.970000	0.777700
	38.975000	0.820453
	38.980000	0.850051
	38.985000	0.800721
	38.990000	0.771122
	38.995000	0.823742
	39.000000	0.846763
	39.005000	0.800721
	39.010000	0.777700
	39.015000	0.827030
	39.020000	0.843474
	39.025000	0.800721
	39.030000	0.774411
	39.035000	0.823742
	39.040000	0.843474
	39.045000	0.800721
	39.050000	0.774411
	39.055000	0.827030
	39.060000	0.850051
	39.065000	0.800721
	39.070000	0.774411
	39.075000	0.823742
	39.080000	0.846763
	39.085000	0.797432
	39.090000	0.774411
	39.095000	0.820453
	39.100000	0.843474
	39.105000	0.800721
	39.110000	0.774411
	39.115000	0.823742
	39.120000	0.850051
	39.125000	0.800721
	39.130000	0.771122
	39.135000	0.827030
	39.140000	0.846763
	39.145000	0.790854
	39.150000	0.774411
	39.155000	0.820453
	39.160000	0.846763
	39.165000	0.800721
	39.170000	0.777700
	39.175000	0.820453
	39.180000	0.846763
	39.185000	0.800721
	39.190000	0.777700
	39.195000	0.827030
	39.200000	0.850051
	39.205000	0.800721
	39.210000	0.774411
	39.215000	0.827030
	39.220000	0.853340
	39.225000	0.800721
	39.230000	0.777700
	39.235000	0.823742
	39.240000	0.850051
	39.245000	0.800721
	39.250000	0.780988
	39.255000	0.827030
	39.260000	0.850051
	39.265000	0.797432
	39.270000	0.777700
	39.275000	0.827030
	39.280000	0.850051
	39.285000	0.800721
	39.290000	0.777700
	39.295000	0.823742
	39.300000	0.846763
	39.305000	0.797432
	39.310000	0.780988
	39.315000	0.823742
	39.320000	0.846763
	39.325000	0.797432
	39.330000	0.780988
	39.335000	0.827030
	39.340000	0.846763
	39.345000	0.797432
	39.350000	0.777700
	39.355000	0.830319
	39.360000	0.850051
	39.365000	0.794143
	39.370000	0.774411
	39.375000	0.823742
	39.380000	0.850051
	39.385000	0.797432
	39.390000	0.774411
	39.395000	0.827030
	39.400000	0.846763
	39.405000	0.800721
	39.410000	0.774411
	39.415000	0.827030
	39.420000	0.846763
	39.425000	0.794143
	39.430000	0.777700
	39.435000	0.827030
	39.440000	0.846763
	39.445000	0.790854
	39.450000	0.777700
	39.455000	0.823742
	39.460000	0.850051
	39.465000	0.794143
	39.470000	0.777700
	39.475000	0.830319
	39.480000	0.846763
	39.485000	0.800721
	39.490000	0.780988
	39.495000	0.827030
	39.500000	0.846763
	39.505000	0.797432
	39.510000	0.774411
	39.515000	0.827030
	39.520000	0.846763
	39.525000	0.794143
	39.530000	0.777700
	39.535000	0.830319
	39.540000	0.846763
	39.545000	0.800721
	39.550000	0.780988
	39.555000	0.823742
	39.560000	0.846763
	39.565000	0.794143
	39.570000	0.777700
	39.575000	0.830319
	39.580000	0.843474
	39.585000	0.797432
	39.590000	0.780988
	39.595000	0.830319
	39.600000	0.846763
	39.605000	0.800721
	39.610000	0.777700
	39.615000	0.833608
	39.620000	0.843474
	39.625000	0.800721
	39.630000	0.780988
	39.635000	0.830319
	39.640000	0.846763
	39.645000	0.797432
	39.650000	0.780988
	39.655000	0.833608
	39.660000	0.850051
	39.665000	0.800721
	39.670000	0.777700
	39.675000	0.833608
	39.680000	0.850051
	39.685000	0.800721
	39.690000	0.774411
	39.695000	0.830319
	39.700000	0.850051
	39.705000	0.800721
	39.710000	0.784277
	39.715000	0.830319
	39.720000	0.853340
	39.725000	0.800721
	39.730000	0.780988
	39.735000	0.833608
	39.740000	0.850051
	39.745000	0.797432
	39.750000	0.780988
	39.755000	0.836897
	39.760000	0.853340
	39.765000	0.800721
	39.770000	0.780988
	39.775000	0.830319
	39.780000	0.850051
	39.785000	0.800721
	39.790000	0.780988
	39.795000	0.836897
	39.800000	0.850051
	39.805000	0.800721
	39.810000	0.784277
	39.815000	0.833608
	39.820000	0.853340
	39.825000	0.797432
	39.830000	0.780988
	39.835000	0.833608
	39.840000	0.856629
	39.845000	0.797432
	39.850000	0.777700
	39.855000	0.833608
	39.860000	0.846763
	39.865000	0.797432
	39.870000	0.780988
	39.875000	0.836897
	39.880000	0.850051
	39.885000	0.794143
	39.890000	0.780988
	39.895000	0.833608
	39.900000	0.850051
	39.905000	0.800721
	39.910000	0.780988
	39.915000	0.833608
	39.920000	0.850051
	39.925000	0.794143
	39.930000	0.774411
	39.935000	0.827030
	39.940000	0.843474
	39.945000	0.784277
	39.950000	0.774411
	39.955000	0.823742
	39.960000	0.843474
	39.965000	0.780988
	39.970000	0.764545
	39.975000	0.810587
	39.980000	0.827030
	39.985000	0.774411
	39.990000	0.757967
	39.995000	0.810587
	40.000000	0.830319
	40.005000	0.771122
	40.010000	0.757967
	40.015000	0.813876
	40.020000	0.827030
	40.025000	0.774411
	40.030000	0.754679
	40.035000	0.807298
	40.040000	0.823742
	40.045000	0.764545
	40.050000	0.748101
	40.055000	0.800721
	40.060000	0.817164
	40.065000	0.761256
	40.070000	0.744812
	40.075000	0.804009
	40.080000	0.810587
	40.085000	0.761256
	40.090000	0.744812
	40.095000	0.797432
	40.100000	0.813876
	40.105000	0.754679
	40.110000	0.744812
	40.115000	0.804009
	40.120000	0.813876
	40.125000	0.757967
	40.130000	0.738235
	40.135000	0.800721
	40.140000	0.817164
	40.145000	0.761256
	40.150000	0.748101
	40.155000	0.800721
	40.160000	0.817164
	40.165000	0.764545
	40.170000	0.748101
	40.175000	0.804009
	40.180000	0.823742
	40.185000	0.761256
	40.190000	0.751390
	40.195000	0.800721
	40.200000	0.817164
	40.205000	0.764545
	40.210000	0.751390
	40.215000	0.810587
	40.220000	0.827030
	40.225000	0.767833
	40.230000	0.757967
	40.235000	0.813876
	40.240000	0.827030
	40.245000	0.771122
	40.250000	0.761256
	40.255000	0.813876
	40.260000	0.830319
	40.265000	0.771122
	40.270000	0.764545
	40.275000	0.823742
	40.280000	0.830319
	40.285000	0.774411
	40.290000	0.761256
	40.295000	0.820453
	40.300000	0.830319
	40.305000	0.777700
	40.310000	0.764545
	40.315000	0.820453
	40.320000	0.836897
	40.325000	0.780988
	40.330000	0.767833
	40.335000	0.833608
	40.340000	0.843474
	40.345000	0.794143
	40.350000	0.780988
	40.355000	0.840185
	40.360000	0.853340
	40.365000	0.804009
	40.370000	0.794143
	40.375000	0.853340
	40.380000	0.863206
	40.385000	0.810587
	40.390000	0.797432
	40.395000	0.859918
	40.400000	0.873073
	40.405000	0.817164
	40.410000	0.804009
	40.415000	0.859918
	40.420000	0.876361
	40.425000	0.817164
	40.430000	0.804009
	40.435000	0.853340
	40.440000	0.859918
	40.445000	0.797432
	40.450000	0.784277
	40.455000	0.840185
	40.460000	0.843474
	40.465000	0.774411
	40.470000	0.754679
	40.475000	0.794143
	40.480000	0.797432
	40.485000	0.748101
	40.490000	0.734946
	40.495000	0.790854
	40.500000	0.804009
	40.505000	0.744812
	40.510000	0.734946
	40.515000	0.787566
	40.520000	0.804009
	40.525000	0.748101
	40.530000	0.734946
	40.535000	0.790854
	40.540000	0.807298
	40.545000	0.748101
	40.550000	0.738235
	40.555000	0.797432
	40.560000	0.807298
	40.565000	0.751390
	40.570000	0.741524
	40.575000	0.790854
	40.580000	0.810587
	40.585000	0.751390
	40.590000	0.744812
	40.595000	0.797432
	40.600000	0.810587
	40.605000	0.754679
	40.610000	0.748101
	40.615000	0.800721
	40.620000	0.807298
	40.625000	0.757967
	40.630000	0.751390
	40.635000	0.800721
	40.640000	0.810587
	40.645000	0.751390
	40.650000	0.748101
	40.655000	0.804009
	40.660000	0.810587
	40.665000	0.761256
	40.670000	0.754679
	40.675000	0.810587
	40.680000	0.810587
	40.685000	0.764545
	40.690000	0.751390
	40.695000	0.810587
	40.700000	0.820453
	40.705000	0.761256
	40.710000	0.754679
	40.715000	0.813876
	40.720000	0.813876
	40.725000	0.764545
	40.730000	0.757967
	40.735000	0.810587
	40.740000	0.820453
	40.745000	0.764545
	40.750000	0.754679
	40.755000	0.813876
	40.760000	0.827030
	40.765000	0.761256
	40.770000	0.757967
	40.775000	0.810587
	40.780000	0.823742
	40.785000	0.767833
	40.790000	0.761256
	40.795000	0.817164
	40.800000	0.820453
	40.805000	0.767833
	40.810000	0.764545
	40.815000	0.817164
	40.820000	0.823742
	40.825000	0.771122
	40.830000	0.761256
	40.835000	0.820453
	40.840000	0.827030
	40.845000	0.774411
	40.850000	0.767833
	40.855000	0.820453
	40.860000	0.827030
	40.865000	0.774411
	40.870000	0.771122
	40.875000	0.820453
	40.880000	0.830319
	40.885000	0.774411
	40.890000	0.764545
	40.895000	0.820453
	40.900000	0.830319
	40.905000	0.771122
	40.910000	0.771122
	40.915000	0.823742
	40.920000	0.827030
	40.925000	0.771122
	40.930000	0.771122
	40.935000	0.820453
	40.940000	0.827030
	40.945000	0.771122
	40.950000	0.774411
	40.955000	0.823742
	40.960000	0.830319
	40.965000	0.774411
	40.970000	0.767833
	40.975000	0.823742
	40.980000	0.827030
	40.985000	0.774411
	40.990000	0.767833
	40.995000	0.830319
	41.000000	0.830319
	41.005000	0.771122
	41.010000	0.767833
	41.015000	0.827030
	41.020000	0.827030
	41.025000	0.771122
	41.030000	0.767833
	41.035000	0.823742
	41.040000	0.827030
	41.045000	0.774411
	41.050000	0.771122
	41.055000	0.827030
	41.060000	0.827030
	41.065000	0.774411
	41.070000	0.774411
	41.075000	0.823742
	41.080000	0.827030
	41.085000	0.774411
	41.090000	0.774411
	41.095000	0.823742
	41.100000	0.827030
	41.105000	0.774411
	41.110000	0.774411
	41.115000	0.827030
	41.120000	0.827030
	41.125000	0.771122
	41.130000	0.774411
	41.135000	0.823742
	41.140000	0.830319
	41.145000	0.774411
	41.150000	0.771122
	41.155000	0.827030
	41.160000	0.830319
	41.165000	0.777700
	41.170000	0.774411
	41.175000	0.827030
	41.180000	0.827030
	41.185000	0.774411
	41.190000	0.774411
	41.195000	0.830319
	41.200000	0.830319
	41.205000	0.774411
	41.210000	0.777700
	41.215000	0.830319
	41.220000	0.830319
	41.225000	0.777700
	41.230000	0.777700
	41.235000	0.827030
	41.240000	0.827030
	41.245000	0.780988
	41.250000	0.774411
	41.255000	0.827030
	41.260000	0.830319
	41.265000	0.774411
	41.270000	0.771122
	41.275000	0.827030
	41.280000	0.833608
	41.285000	0.774411
	41.290000	0.774411
	41.295000	0.827030
	41.300000	0.830319
	41.305000	0.771122
	41.310000	0.777700
	41.315000	0.827030
	41.320000	0.833608
	41.325000	0.777700
	41.330000	0.777700
	41.335000	0.830319
	41.340000	0.827030
	41.345000	0.780988
	41.350000	0.777700
	41.355000	0.830319
	41.360000	0.830319
	41.365000	0.771122
	41.370000	0.774411
	41.375000	0.827030
	41.380000	0.830319
	41.385000	0.780988
	41.390000	0.777700
	41.395000	0.833608
	41.400000	0.833608
	41.405000	0.774411
	41.410000	0.777700
	41.415000	0.830319
	41.420000	0.830319
	41.425000	0.777700
	41.430000	0.780988
	41.435000	0.827030
	41.440000	0.830319
	41.445000	0.777700
	41.450000	0.774411
	41.455000	0.830319
	41.460000	0.830319
	41.465000	0.777700
	41.470000	0.784277
	41.475000	0.833608
	41.480000	0.830319
	41.485000	0.774411
	41.490000	0.774411
	41.495000	0.830319
	41.500000	0.830319
	41.505000	0.777700
	41.510000	0.780988
	41.515000	0.827030
	41.520000	0.830319
	41.525000	0.777700
	41.530000	0.777700
	41.535000	0.833608
	41.540000	0.830319
	41.545000	0.774411
	41.550000	0.780988
	41.555000	0.833608
	41.560000	0.830319
	41.565000	0.777700
	41.570000	0.780988
	41.575000	0.827030
	41.580000	0.830319
	41.585000	0.774411
	41.590000	0.777700
	41.595000	0.833608
	41.600000	0.830319
	41.605000	0.777700
	41.610000	0.780988
	41.615000	0.836897
	41.620000	0.836897
	41.625000	0.774411
	41.630000	0.784277
	41.635000	0.833608
	41.640000	0.833608
	41.645000	0.780988
	41.650000	0.780988
	41.655000	0.833608
	41.660000	0.833608
	41.665000	0.777700
	41.670000	0.780988
	41.675000	0.836897
	41.680000	0.836897
	41.685000	0.777700
	41.690000	0.784277
	41.695000	0.833608
	41.700000	0.836897
	41.705000	0.777700
	41.710000	0.780988
	41.715000	0.833608
	41.720000	0.836897
	41.725000	0.777700
	41.730000	0.780988
	41.735000	0.836897
	41.740000	0.830319
	41.745000	0.780988
	41.750000	0.777700
	41.755000	0.830319
	41.760000	0.833608
	41.765000	0.780988
	41.770000	0.780988
	41.775000	0.836897
	41.780000	0.827030
	41.785000	0.777700
	41.790000	0.777700
	41.795000	0.833608
	41.800000	0.833608
	41.805000	0.774411
	41.810000	0.784277
	41.815000	0.836897
	41.820000	0.833608
	41.825000	0.780988
	41.830000	0.780988
	41.835000	0.833608
	41.840000	0.830319
	41.845000	0.777700
	41.850000	0.784277
	41.855000	0.836897
	41.860000	0.830319
	41.865000	0.780988
	41.870000	0.780988
	41.875000	0.840185
	41.880000	0.830319
	41.885000	0.777700
	41.890000	0.784277
	41.895000	0.836897
	41.900000	0.833608
	41.905000	0.777700
	41.910000	0.787566
	41.915000	0.836897
	41.920000	0.833608
	41.925000	0.777700
	41.930000	0.787566
	41.935000	0.836897
	41.940000	0.833608
	41.945000	0.777700
	41.950000	0.787566
	41.955000	0.840185
	41.960000	0.836897
	41.965000	0.780988
	41.970000	0.787566
	41.975000	0.843474
	41.980000	0.830319
	41.985000	0.777700
	41.990000	0.787566
	41.995000	0.840185
	42.000000	0.830319
	42.005000	0.777700
	42.010000	0.784277
	42.015000	0.836897
	42.020000	0.836897
	42.025000	0.777700
	42.030000	0.784277
	42.035000	0.840185
	42.040000	0.833608
	42.045000	0.777700
	42.050000	0.784277
	42.055000	0.843474
	42.060000	0.830319
	42.065000	0.780988
	42.070000	0.784277
	42.075000	0.840185
	42.080000	0.830319
	42.085000	0.774411
	42.090000	0.787566
	42.095000	0.840185
	42.100000	0.830319
	42.105000	0.777700
	42.110000	0.787566
	42.115000	0.836897
	42.120000	0.830319
	42.125000	0.774411
	42.130000	0.787566
	42.135000	0.840185
	42.140000	0.833608
	42.145000	0.774411
	42.150000	0.787566
	42.155000	0.840185
	42.160000	0.833608
	42.165000	0.774411
	42.170000	0.787566
	42.175000	0.833608
	42.180000	0.833608
	42.185000	0.774411
	42.190000	0.780988
	42.195000	0.843474
	42.200000	0.833608
	42.205000	0.777700
	42.210000	0.787566
	42.215000	0.840185
	42.220000	0.823742
	42.225000	0.777700
	42.230000	0.784277
	42.235000	0.840185
	42.240000	0.833608
	42.245000	0.774411
	42.250000	0.787566
	42.255000	0.840185
	42.260000	0.836897
	42.265000	0.780988
	42.270000	0.790854
	42.275000	0.840185
	42.280000	0.827030
	42.285000	0.780988
	42.290000	0.787566
	42.295000	0.840185
	42.300000	0.827030
	42.305000	0.777700
	42.310000	0.787566
	42.315000	0.840185
	42.320000	0.833608
	42.325000	0.780988
	42.330000	0.787566
	42.335000	0.840185
	42.340000	0.827030
	42.345000	0.774411
	42.350000	0.787566
	42.355000	0.840185
	42.360000	0.830319
	42.365000	0.777700
	42.370000	0.787566
	42.375000	0.836897
	42.380000	0.827030
	42.385000	0.777700
	42.390000	0.790854
	42.395000	0.840185
	42.400000	0.830319
	42.405000	0.777700
	42.410000	0.787566
	42.415000	0.843474
	42.420000	0.830319
	42.425000	0.774411
	42.430000	0.787566
	42.435000	0.840185
	42.440000	0.827030
	42.445000	0.777700
	42.450000	0.784277
	42.455000	0.843474
	42.460000	0.833608
	42.465000	0.774411
	42.470000	0.790854
	42.475000	0.840185
	42.480000	0.827030
	42.485000	0.777700
	42.490000	0.787566
	42.495000	0.836897
	42.500000	0.830319
	42.505000	0.774411
	42.510000	0.787566
	42.515000	0.843474
	42.520000	0.823742
	42.525000	0.771122
	42.530000	0.790854
	42.535000	0.840185
	42.540000	0.827030
	42.545000	0.780988
	42.550000	0.787566
	42.555000	0.846763
	42.560000	0.827030
	42.565000	0.777700
	42.570000	0.787566
	42.575000	0.840185
	42.580000	0.833608
	42.585000	0.774411
	42.590000	0.790854
	42.595000	0.840185
	42.600000	0.830319
	42.605000	0.774411
	42.610000	0.790854
	42.615000	0.843474
	42.620000	0.830319
	42.625000	0.777700
	42.630000	0.794143
	42.635000	0.843474
	42.640000	0.830319
	42.645000	0.780988
	42.650000	0.794143
	42.655000	0.843474
	42.660000	0.827030
	42.665000	0.780988
	42.670000	0.794143
	42.675000	0.843474
	42.680000	0.830319
	42.685000	0.774411
	42.690000	0.794143
	42.695000	0.846763
	42.700000	0.830319
	42.705000	0.780988
	42.710000	0.794143
	42.715000	0.853340
	42.720000	0.830319
	42.725000	0.777700
	42.730000	0.794143
	42.735000	0.843474
	42.740000	0.830319
	42.745000	0.777700
	42.750000	0.797432
	42.755000	0.843474
	42.760000	0.833608
	42.765000	0.780988
	42.770000	0.797432
	42.775000	0.843474
	42.780000	0.833608
	42.785000	0.777700
	42.790000	0.794143
	42.795000	0.846763
	42.800000	0.833608
	42.805000	0.780988
	42.810000	0.800721
	42.815000	0.853340
	42.820000	0.836897
	42.825000	0.780988
	42.830000	0.797432
	42.835000	0.853340
	42.840000	0.833608
	42.845000	0.780988
	42.850000	0.797432
	42.855000	0.853340
	42.860000	0.836897
	42.865000	0.780988
	42.870000	0.800721
	42.875000	0.853340
	42.880000	0.833608
	42.885000	0.777700
	42.890000	0.804009
	42.895000	0.853340
	42.900000	0.833608
	42.905000	0.780988
	42.910000	0.797432
	42.915000	0.850051
	42.920000	0.836897
	42.925000	0.780988
	42.930000	0.800721
	42.935000	0.856629
	42.940000	0.836897
	42.945000	0.777700
	42.950000	0.804009
	42.955000	0.856629
	42.960000	0.836897
	42.965000	0.787566
	42.970000	0.807298
	42.975000	0.856629
	42.980000	0.836897
	42.985000	0.784277
	42.990000	0.797432
	42.995000	0.853340
	43.000000	0.827030
	43.005000	0.774411
	43.010000	0.794143
	43.015000	0.846763
	43.020000	0.823742
	43.025000	0.771122
	43.030000	0.784277
	43.035000	0.843474
	43.040000	0.823742
	43.045000	0.767833
	43.050000	0.787566
	43.055000	0.840185
	43.060000	0.820453
	43.065000	0.764545
	43.070000	0.780988
	43.075000	0.836897
	43.080000	0.817164
	43.085000	0.764545
	43.090000	0.784277
	43.095000	0.833608
	43.100000	0.817164
	43.105000	0.761256
	43.110000	0.784277
	43.115000	0.836897
	43.120000	0.810587
	43.125000	0.761256
	43.130000	0.780988
	43.135000	0.830319
	43.140000	0.813876
	43.145000	0.754679
	43.150000	0.777700
	43.155000	0.830319
	43.160000	0.807298
	43.165000	0.748101
	43.170000	0.777700
	43.175000	0.823742
	43.180000	0.804009
	43.185000	0.748101
	43.190000	0.774411
	43.195000	0.823742
	43.200000	0.807298
	43.205000	0.748101
	43.210000	0.764545
	43.215000	0.827030
	43.220000	0.804009
	43.225000	0.751390
	43.230000	0.767833
	43.235000	0.820453
	43.240000	0.800721
	43.245000	0.744812
	43.250000	0.771122
	43.255000	0.827030
	43.260000	0.800721
	43.265000	0.751390
	43.270000	0.777700
	43.275000	0.823742
	43.280000	0.804009
	43.285000	0.754679
	43.290000	0.777700
	43.295000	0.836897
	43.300000	0.810587
	43.305000	0.761256
	43.310000	0.787566
	43.315000	0.843474
	43.320000	0.823742
	43.325000	0.777700
	43.330000	0.804009
	43.335000	0.856629
	43.340000	0.840185
	43.345000	0.784277
	43.350000	0.813876
	43.355000	0.866495
	43.360000	0.843474
	43.365000	0.794143
	43.370000	0.820453
	43.375000	0.869784
	43.380000	0.846763
	43.385000	0.800721
	43.390000	0.820453
	43.395000	0.869784
	43.400000	0.843474
	43.405000	0.790854
	43.410000	0.807298
	43.415000	0.859918
	43.420000	0.830319
	43.425000	0.774411
	43.430000	0.800721
	43.435000	0.833608
	43.440000	0.804009
	43.445000	0.744812
	43.450000	0.761256
	43.455000	0.813876
	43.460000	0.784277
	43.465000	0.738235
	43.470000	0.761256
	43.475000	0.813876
	43.480000	0.787566
	43.485000	0.734946
	43.490000	0.761256
	43.495000	0.813876
	43.500000	0.794143
	43.505000	0.738235
	43.510000	0.761256
	43.515000	0.813876
	43.520000	0.790854
	43.525000	0.741524
	43.530000	0.761256
	43.535000	0.820453
	43.540000	0.794143
	43.545000	0.741524
	43.550000	0.761256
	43.555000	0.813876
	43.560000	0.790854
	43.565000	0.744812
	43.570000	0.771122
	43.575000	0.820453
	43.580000	0.794143
	43.585000	0.741524
	43.590000	0.767833
	43.595000	0.817164
	43.600000	0.790854
	43.605000	0.744812
	43.610000	0.767833
	43.615000	0.817164
	43.620000	0.790854
	43.625000	0.748101
	43.630000	0.767833
	43.635000	0.820453
	43.640000	0.794143
	43.645000	0.748101
	43.650000	0.771122
	43.655000	0.817164
	43.660000	0.790854
	43.665000	0.748101
	43.670000	0.767833
	43.675000	0.823742
	43.680000	0.797432
	43.685000	0.748101
	43.690000	0.771122
	43.695000	0.820453
	43.700000	0.800721
	43.705000	0.748101
	43.710000	0.771122
	43.715000	0.823742
	43.720000	0.797432
	43.725000	0.751390
	43.730000	0.774411
	43.735000	0.823742
	43.740000	0.804009
	43.745000	0.751390
	43.750000	0.777700
	43.755000	0.827030
	43.760000	0.804009
	43.765000	0.757967
	43.770000	0.777700
	43.775000	0.827030
	43.780000	0.804009
	43.785000	0.751390
	43.790000	0.780988
	43.795000	0.830319
	43.800000	0.800721
	43.805000	0.751390
	43.810000	0.780988
	43.815000	0.830319
	43.820000	0.800721
	43.825000	0.754679
	43.830000	0.784277
	43.835000	0.830319
	43.840000	0.807298
	43.845000	0.757967
	43.850000	0.787566
	43.855000	0.833608
	43.860000	0.804009
	43.865000	0.757967
	43.870000	0.784277
	43.875000	0.836897
	43.880000	0.807298
	43.885000	0.757967
	43.890000	0.787566
	43.895000	0.830319
	43.900000	0.804009
	43.905000	0.757967
	43.910000	0.787566
	43.915000	0.830319
	43.920000	0.807298
	43.925000	0.757967
	43.930000	0.790854
	43.935000	0.830319
	43.940000	0.804009
	43.945000	0.764545
	43.950000	0.784277
	43.955000	0.833608
	43.960000	0.810587
	43.965000	0.761256
	43.970000	0.787566
	43.975000	0.840185
	43.980000	0.804009
	43.985000	0.761256
	43.990000	0.790854
	43.995000	0.840185
	44.000000	0.807298
	44.005000	0.757967
	44.010000	0.790854
	44.015000	0.833608
	44.020000	0.810587
	44.025000	0.764545
	44.030000	0.787566
	44.035000	0.836897
	44.040000	0.807298
	44.045000	0.761256
	44.050000	0.794143
	44.055000	0.836897
	44.060000	0.810587
	44.065000	0.761256
	44.070000	0.790854
	44.075000	0.840185
	44.080000	0.810587
	44.085000	0.764545
	44.090000	0.790854
	44.095000	0.836897
	44.100000	0.810587
	44.105000	0.764545
	44.110000	0.794143
	44.115000	0.836897
	44.120000	0.807298
	44.125000	0.764545
	44.130000	0.790854
	44.135000	0.840185
	44.140000	0.810587
	44.145000	0.764545
	44.150000	0.790854
	44.155000	0.840185
	44.160000	0.807298
	44.165000	0.764545
	44.170000	0.794143
	44.175000	0.843474
	44.180000	0.810587
	44.185000	0.767833
	44.190000	0.790854
	44.195000	0.840185
	44.200000	0.810587
	44.205000	0.764545
	44.210000	0.794143
	44.215000	0.833608
	44.220000	0.810587
	44.225000	0.761256
	44.230000	0.794143
	44.235000	0.836897
	44.240000	0.810587
	44.245000	0.764545
	44.250000	0.794143
	44.255000	0.836897
	44.260000	0.804009
	44.265000	0.757967
	44.270000	0.794143
	44.275000	0.843474
	44.280000	0.810587
	44.285000	0.764545
	44.290000	0.794143
	44.295000	0.840185
	44.300000	0.810587
	44.305000	0.764545
	44.310000	0.797432
	44.315000	0.840185
	44.320000	0.807298
	44.325000	0.764545
	44.330000	0.794143
	44.335000	0.840185
	44.340000	0.813876
	44.345000	0.771122
	44.350000	0.804009
	44.355000	0.843474
	44.360000	0.813876
	44.365000	0.767833
	44.370000	0.800721
	44.375000	0.843474
	44.380000	0.807298
	44.385000	0.764545
	44.390000	0.800721
	44.395000	0.843474
	44.400000	0.807298
	44.405000	0.764545
	44.410000	0.800721
	44.415000	0.840185
	44.420000	0.813876
	44.425000	0.764545
	44.430000	0.797432
	44.435000	0.843474
	44.440000	0.810587
	44.445000	0.771122
	44.450000	0.797432
	44.455000	0.846763
	44.460000	0.813876
	44.465000	0.767833
	44.470000	0.800721
	44.475000	0.840185
	44.480000	0.813876
	44.485000	0.767833
	44.490000	0.800721
	44.495000	0.843474
	44.500000	0.810587
	44.505000	0.767833
	44.510000	0.800721
	44.515000	0.843474
	44.520000	0.807298
	44.525000	0.774411
	44.530000	0.794143
	44.535000	0.846763
	44.540000	0.807298
	44.545000	0.767833
	44.550000	0.797432
	44.555000	0.840185
	44.560000	0.807298
	44.565000	0.764545
	44.570000	0.800721
	44.575000	0.843474
	44.580000	0.810587
	44.585000	0.764545
	44.590000	0.804009
	44.595000	0.843474
	44.600000	0.807298
	44.605000	0.764545
	44.610000	0.800721
	44.615000	0.843474
	44.620000	0.813876
	44.625000	0.771122
	44.630000	0.804009
	44.635000	0.846763
	44.640000	0.813876
	44.645000	0.771122
	44.650000	0.804009
	44.655000	0.850051
	44.660000	0.810587
	44.665000	0.774411
	44.670000	0.810587
	44.675000	0.843474
	44.680000	0.810587
	44.685000	0.774411
	44.690000	0.807298
	44.695000	0.846763
	44.700000	0.810587
	44.705000	0.771122
	44.710000	0.800721
	44.715000	0.840185
	44.720000	0.810587
	44.725000	0.771122
	44.730000	0.800721
	44.735000	0.846763
	44.740000	0.804009
	44.745000	0.771122
	44.750000	0.804009
	44.755000	0.850051
	44.760000	0.807298
	44.765000	0.767833
	44.770000	0.807298
	44.775000	0.850051
	44.780000	0.810587
	44.785000	0.767833
	44.790000	0.804009
	44.795000	0.843474
	44.800000	0.813876
	44.805000	0.767833
	44.810000	0.807298
	44.815000	0.850051
	44.820000	0.807298
	44.825000	0.767833
	44.830000	0.804009
	44.835000	0.843474
	44.840000	0.807298
	44.845000	0.764545
	44.850000	0.804009
	44.855000	0.843474
	44.860000	0.810587
	44.865000	0.767833
	44.870000	0.804009
	44.875000	0.843474
	44.880000	0.810587
	44.885000	0.771122
	44.890000	0.804009
	44.895000	0.846763
	44.900000	0.807298
	44.905000	0.767833
	44.910000	0.804009
	44.915000	0.846763
	44.920000	0.810587
	44.925000	0.761256
	44.930000	0.800721
	44.935000	0.840185
	44.940000	0.807298
	44.945000	0.767833
	44.950000	0.804009
	44.955000	0.846763
	44.960000	0.807298
	44.965000	0.767833
	44.970000	0.804009
	44.975000	0.843474
	44.980000	0.807298
	44.985000	0.771122
	44.990000	0.804009
	44.995000	0.846763
	45.000000	0.810587
	45.005000	0.771122
	45.010000	0.807298
	45.015000	0.843474
	45.020000	0.807298
	45.025000	0.767833
	45.030000	0.804009
	45.035000	0.843474
	45.040000	0.804009
	45.045000	0.767833
	45.050000	0.807298
	45.055000	0.843474
	45.060000	0.807298
	45.065000	0.771122
	45.070000	0.804009
	45.075000	0.846763
	45.080000	0.804009
	45.085000	0.767833
	45.090000	0.804009
	45.095000	0.846763
	45.100000	0.804009
	45.105000	0.764545
	45.110000	0.810587
	45.115000	0.846763
	45.120000	0.800721
	45.125000	0.767833
	45.130000	0.804009
	45.135000	0.846763
	45.140000	0.804009
	45.145000	0.767833
	45.150000	0.800721
	45.155000	0.843474
	45.160000	0.807298
	45.165000	0.767833
	45.170000	0.807298
	45.175000	0.843474
	45.180000	0.800721
	45.185000	0.767833
	45.190000	0.804009
	45.195000	0.846763
	45.200000	0.807298
	45.205000	0.764545
	45.210000	0.807298
	45.215000	0.843474
	45.220000	0.807298
	45.225000	0.764545
	45.230000	0.807298
	45.235000	0.843474
	45.240000	0.800721
	45.245000	0.767833
	45.250000	0.807298
	45.255000	0.843474
	45.260000	0.804009
	45.265000	0.767833
	45.270000	0.807298
	45.275000	0.840185
	45.280000	0.804009
	45.285000	0.767833
	45.290000	0.810587
	45.295000	0.840185
	45.300000	0.804009
	45.305000	0.771122
	45.310000	0.807298
	45.315000	0.846763
	45.320000	0.800721
	45.325000	0.774411
	45.330000	0.807298
	45.335000	0.846763
	45.340000	0.804009
	45.345000	0.764545
	45.350000	0.807298
	45.355000	0.843474
	45.360000	0.807298
	45.365000	0.771122
	45.370000	0.810587
	45.375000	0.846763
	45.380000	0.807298
	45.385000	0.774411
	45.390000	0.810587
	45.395000	0.850051
	45.400000	0.807298
	45.405000	0.764545
	45.410000	0.813876
	45.415000	0.853340
	45.420000	0.807298
	45.425000	0.771122
	45.430000	0.813876
	45.435000	0.846763
	45.440000	0.804009
	45.445000	0.774411
	45.450000	0.810587
	45.455000	0.843474
	45.460000	0.804009
	45.465000	0.767833
	45.470000	0.810587
	45.475000	0.846763
	45.480000	0.807298
	45.485000	0.767833
	45.490000	0.807298
	45.495000	0.846763
	45.500000	0.804009
	45.505000	0.774411
	45.510000	0.807298
	45.515000	0.843474
	45.520000	0.804009
	45.525000	0.774411
	45.530000	0.813876
	45.535000	0.850051
	45.540000	0.807298
	45.545000	0.767833
	45.550000	0.813876
	45.555000	0.846763
	45.560000	0.800721
	45.565000	0.774411
	45.570000	0.813876
	45.575000	0.850051
	45.580000	0.804009
	45.585000	0.771122
	45.590000	0.813876
	45.595000	0.850051
	45.600000	0.807298
	45.605000	0.767833
	45.610000	0.813876
	45.615000	0.846763
	45.620000	0.807298
	45.625000	0.771122
	45.630000	0.813876
	45.635000	0.846763
	45.640000	0.807298
	45.645000	0.771122
	45.650000	0.813876
	45.655000	0.850051
	45.660000	0.807298
	45.665000	0.774411
	45.670000	0.817164
	45.675000	0.846763
	45.680000	0.804009
	45.685000	0.774411
	45.690000	0.817164
	45.695000	0.846763
	45.700000	0.810587
	45.705000	0.771122
	45.710000	0.820453
	45.715000	0.850051
	45.720000	0.810587
	45.725000	0.774411
	45.730000	0.817164
	45.735000	0.853340
	45.740000	0.810587
	45.745000	0.774411
	45.750000	0.817164
	45.755000	0.846763
	45.760000	0.804009
	45.765000	0.771122
	45.770000	0.820453
	45.775000	0.850051
	45.780000	0.810587
	45.785000	0.771122
	45.790000	0.813876
	45.795000	0.853340
	45.800000	0.807298
	45.805000	0.774411
	45.810000	0.817164
	45.815000	0.846763
	45.820000	0.807298
	45.825000	0.777700
	45.830000	0.820453
	45.835000	0.853340
	45.840000	0.800721
	45.845000	0.777700
	45.850000	0.820453
	45.855000	0.853340
	45.860000	0.810587
	45.865000	0.774411
	45.870000	0.817164
	45.875000	0.850051
	45.880000	0.807298
	45.885000	0.774411
	45.890000	0.820453
	45.895000	0.856629
	45.900000	0.807298
	45.905000	0.774411
	45.910000	0.823742
	45.915000	0.853340
	45.920000	0.807298
	45.925000	0.780988
	45.930000	0.820453
	45.935000	0.856629
	45.940000	0.810587
	45.945000	0.777700
	45.950000	0.827030
	45.955000	0.859918
	45.960000	0.807298
	45.965000	0.780988
	45.970000	0.827030
	45.975000	0.853340
	45.980000	0.810587
	45.985000	0.784277
	45.990000	0.827030
	45.995000	0.866495
	46.000000	0.813876
	46.005000	0.777700
	46.010000	0.827030
	46.015000	0.853340
	46.020000	0.810587
	46.025000	0.777700
	46.030000	0.823742
	46.035000	0.853340
	46.040000	0.807298
	46.045000	0.777700
	46.050000	0.820453
	46.055000	0.853340
	46.060000	0.807298
	46.065000	0.767833
	46.070000	0.817164
	46.075000	0.846763
	46.080000	0.800721
	46.085000	0.767833
	46.090000	0.810587
	46.095000	0.843474
	46.100000	0.794143
	46.105000	0.757967
	46.110000	0.804009
	46.115000	0.833608
	46.120000	0.794143
	46.125000	0.757967
	46.130000	0.800721
	46.135000	0.833608
	46.140000	0.780988
	46.145000	0.754679
	46.150000	0.797432
	46.155000	0.830319
	46.160000	0.784277
	46.165000	0.751390
	46.170000	0.797432
	46.175000	0.830319
	46.180000	0.790854
	46.185000	0.754679
	46.190000	0.800721
	46.195000	0.827030
	46.200000	0.780988
	46.205000	0.748101
	46.210000	0.797432
	46.215000	0.827030
	46.220000	0.777700
	46.225000	0.751390
	46.230000	0.794143
	46.235000	0.827030
	46.240000	0.777700
	46.245000	0.751390
	46.250000	0.797432
	46.255000	0.830319
	46.260000	0.780988
	46.265000	0.751390
	46.270000	0.797432
	46.275000	0.823742
	46.280000	0.784277
	46.285000	0.754679
	46.290000	0.797432
	46.295000	0.830319
	46.300000	0.780988
	46.305000	0.751390
	46.310000	0.794143
	46.315000	0.827030
	46.320000	0.784277
	46.325000	0.754679
	46.330000	0.800721
	46.335000	0.827030
	46.340000	0.780988
	46.345000	0.751390
	46.350000	0.804009
	46.355000	0.830319
	46.360000	0.784277
	46.365000	0.748101
	46.370000	0.800721
	46.375000	0.836897
	46.380000	0.780988
	46.385000	0.751390
	46.390000	0.800721
	46.395000	0.833608
	46.400000	0.780988
	46.405000	0.751390
	46.410000	0.804009
	46.415000	0.830319
	46.420000	0.787566
	46.425000	0.751390
	46.430000	0.804009
	46.435000	0.830319
	46.440000	0.780988
	46.445000	0.757967
	46.450000	0.804009
	46.455000	0.833608
	46.460000	0.787566
	46.465000	0.761256
	46.470000	0.804009
	46.475000	0.840185
	46.480000	0.790854
	46.485000	0.761256
	46.490000	0.807298
	46.495000	0.843474
	46.500000	0.794143
	46.505000	0.764545
	46.510000	0.813876
	46.515000	0.846763
	46.520000	0.800721
	46.525000	0.774411
	46.530000	0.833608
	46.535000	0.859918
	46.540000	0.820453
	46.545000	0.794143
	46.550000	0.843474
	46.555000	0.879650
	46.560000	0.830319
	46.565000	0.804009
	46.570000	0.840185
	46.575000	0.866495
	46.580000	0.810587
	46.585000	0.784277
	46.590000	0.827030
	46.595000	0.856629
	46.600000	0.804009
	46.605000	0.767833
	46.610000	0.813876
	46.615000	0.830319
	46.620000	0.774411
	46.625000	0.731657
	46.630000	0.764545
	46.635000	0.787566
	46.640000	0.728369
	46.645000	0.705348
	46.650000	0.751390
	46.655000	0.777700
	46.660000	0.728369
	46.665000	0.702059
	46.670000	0.751390
	46.675000	0.780988
	46.680000	0.734946
	46.685000	0.702059
	46.690000	0.751390
	46.695000	0.780988
	46.700000	0.734946
	46.705000	0.708636
	46.710000	0.757967
	46.715000	0.780988
	46.720000	0.738235
	46.725000	0.708636
	46.730000	0.761256
	46.735000	0.787566
	46.740000	0.738235
	46.745000	0.711925
	46.750000	0.761256
	46.755000	0.794143
	46.760000	0.738235
	46.765000	0.718503
	46.770000	0.764545
	46.775000	0.790854
	46.780000	0.741524
	46.785000	0.718503
	46.790000	0.767833
	46.795000	0.790854
	46.800000	0.741524
	46.805000	0.721791
	46.810000	0.774411
	46.815000	0.794143
	46.820000	0.748101
	46.825000	0.721791
	46.830000	0.774411
	46.835000	0.800721
	46.840000	0.751390
	46.845000	0.728369
	46.850000	0.777700
	46.855000	0.800721
	46.860000	0.754679
	46.865000	0.725080
	46.870000	0.774411
	46.875000	0.804009
	46.880000	0.748101
	46.885000	0.728369
	46.890000	0.777700
	46.895000	0.804009
	46.900000	0.751390
	46.905000	0.728369
	46.910000	0.784277
	46.915000	0.804009
	46.920000	0.754679
	46.925000	0.734946
	46.930000	0.780988
	46.935000	0.807298
	46.940000	0.754679
	46.945000	0.728369
	46.950000	0.784277
	46.955000	0.810587
	46.960000	0.757967
	46.965000	0.734946
	46.970000	0.784277
	46.975000	0.807298
	46.980000	0.754679
	46.985000	0.738235
	46.990000	0.790854
	46.995000	0.810587
	47.000000	0.764545
	47.005000	0.741524
	47.010000	0.790854
	47.015000	0.813876
	47.020000	0.764545
	47.025000	0.741524
	47.030000	0.790854
	47.035000	0.813876
	47.040000	0.764545
	47.045000	0.744812
	47.050000	0.794143
	47.055000	0.813876
	47.060000	0.764545
	47.065000	0.744812
	47.070000	0.790854
	47.075000	0.820453
	47.080000	0.767833
	47.085000	0.751390
	47.090000	0.797432
	47.095000	0.820453
	47.100000	0.767833
	47.105000	0.748101
	47.110000	0.794143
	47.115000	0.820453
	47.120000	0.771122
	47.125000	0.751390
	47.130000	0.794143
	47.135000	0.817164
	47.140000	0.771122
	47.145000	0.751390
	47.150000	0.797432
	47.155000	0.827030
	47.160000	0.774411
	47.165000	0.748101
	47.170000	0.800721
	47.175000	0.820453
	47.180000	0.771122
	47.185000	0.751390
	47.190000	0.800721
	47.195000	0.820453
	47.200000	0.771122
	47.205000	0.751390
	47.210000	0.800721
	47.215000	0.820453
	47.220000	0.767833
	47.225000	0.751390
	47.230000	0.800721
	47.235000	0.827030
	47.240000	0.774411
	47.245000	0.751390
	47.250000	0.804009
	47.255000	0.820453
	47.260000	0.771122
	47.265000	0.751390
	47.270000	0.804009
	47.275000	0.823742
	47.280000	0.771122
	47.285000	0.757967
	47.290000	0.804009
	47.295000	0.823742
	47.300000	0.774411
	47.305000	0.751390
	47.310000	0.804009
	47.315000	0.827030
	47.320000	0.774411
	47.325000	0.754679
	47.330000	0.800721
	47.335000	0.827030
	47.340000	0.774411
	47.345000	0.761256
	47.350000	0.807298
	47.355000	0.823742
	47.360000	0.774411
	47.365000	0.757967
	47.370000	0.807298
	47.375000	0.830319
	47.380000	0.774411
	47.385000	0.761256
	47.390000	0.804009
	47.395000	0.827030
	47.400000	0.777700
	47.405000	0.754679
	47.410000	0.807298
	47.415000	0.830319
	47.420000	0.780988
	47.425000	0.757967
	47.430000	0.807298
	47.435000	0.830319
	47.440000	0.777700
	47.445000	0.761256
	47.450000	0.807298
	47.455000	0.830319
	47.460000	0.780988
	47.465000	0.764545
	47.470000	0.810587
	47.475000	0.827030
	47.480000	0.777700
	47.485000	0.761256
	47.490000	0.813876
	47.495000	0.827030
	47.500000	0.777700
	47.505000	0.761256
	47.510000	0.813876
	47.515000	0.827030
	47.520000	0.777700
	47.525000	0.761256
	47.530000	0.813876
	47.535000	0.830319
	47.540000	0.780988
	47.545000	0.757967
	47.550000	0.807298
	47.555000	0.830319
	47.560000	0.774411
	47.565000	0.761256
	47.570000	0.810587
	47.575000	0.830319
	47.580000	0.777700
	47.585000	0.761256
	47.590000	0.813876
	47.595000	0.830319
	47.600000	0.777700
	47.605000	0.761256
	47.610000	0.817164
	47.615000	0.833608
	47.620000	0.780988
	47.625000	0.764545
	47.630000	0.817164
	47.635000	0.833608
	47.640000	0.780988
	47.645000	0.761256
	47.650000	0.817164
	47.655000	0.836897
	47.660000	0.780988
	47.665000	0.764545
	47.670000	0.813876
	47.675000	0.833608
	47.680000	0.780988
	47.685000	0.764545
	47.690000	0.817164
	47.695000	0.833608
	47.700000	0.784277
	47.705000	0.764545
	47.710000	0.817164
	47.715000	0.833608
	47.720000	0.780988
	47.725000	0.761256
	47.730000	0.817164
	47.735000	0.833608
	47.740000	0.780988
	47.745000	0.767833
	47.750000	0.817164
	47.755000	0.833608
	47.760000	0.777700
	47.765000	0.764545
	47.770000	0.817164
	47.775000	0.830319
	47.780000	0.780988
	47.785000	0.767833
	47.790000	0.820453
	47.795000	0.830319
	47.800000	0.787566
	47.805000	0.764545
	47.810000	0.813876
	47.815000	0.833608
	47.820000	0.777700
	47.825000	0.774411
	47.830000	0.820453
	47.835000	0.833608
	47.840000	0.784277
	47.845000	0.771122
	47.850000	0.817164
	47.855000	0.836897
	47.860000	0.777700
	47.865000	0.767833
	47.870000	0.817164
	47.875000	0.836897
	47.880000	0.780988
	47.885000	0.767833
	47.890000	0.820453
	47.895000	0.833608
	47.900000	0.780988
	47.905000	0.767833
	47.910000	0.817164
	47.915000	0.833608
	47.920000	0.780988
	47.925000	0.767833
	47.930000	0.817164
	47.935000	0.836897
	47.940000	0.780988
	47.945000	0.764545
	47.950000	0.817164
	47.955000	0.833608
	47.960000	0.780988
	47.965000	0.764545
	47.970000	0.820453
	47.975000	0.836897
	47.980000	0.784277
	47.985000	0.767833
	47.990000	0.817164
	47.995000	0.830319
	48.000000	0.777700
	48.005000	0.771122
	48.010000	0.820453
	48.015000	0.830319
	48.020000	0.777700
	48.025000	0.767833
