2024/7/20 	 10:10:42 
 This file comes from Vt only measurement 	 1.000000E-1 
 Voltage Sensitivity 	 0.000000E+0 
 Sampling rate 	 200 
 Number of samples per channel 	 -1 
 No filter from Labview 	 	 	 
 	 
 ***End_of_Header*** 
 	 Time 	  Voltage 	 Filtered Voltage 	 
	0.000000	0.392919
	0.005000	0.360032
	0.010000	0.455405
	0.015000	0.485003
	0.020000	0.389630
	0.025000	0.356743
	0.030000	0.452116
	0.035000	0.491581
	0.040000	0.386342
	0.045000	0.356743
	0.050000	0.452116
	0.055000	0.491581
	0.060000	0.389630
	0.065000	0.360032
	0.070000	0.452116
	0.075000	0.485003
	0.080000	0.386342
	0.085000	0.356743
	0.090000	0.455405
	0.095000	0.485003
	0.100000	0.386342
	0.105000	0.356743
	0.110000	0.452116
	0.115000	0.485003
	0.120000	0.386342
	0.125000	0.360032
	0.130000	0.455405
	0.135000	0.485003
	0.140000	0.389630
	0.145000	0.363321
	0.150000	0.452116
	0.155000	0.488292
	0.160000	0.389630
	0.165000	0.356743
	0.170000	0.455405
	0.175000	0.485003
	0.180000	0.386342
	0.185000	0.356743
	0.190000	0.455405
	0.195000	0.488292
	0.200000	0.386342
	0.205000	0.356743
	0.210000	0.455405
	0.215000	0.485003
	0.220000	0.386342
	0.225000	0.360032
	0.230000	0.455405
	0.235000	0.485003
	0.240000	0.389630
	0.245000	0.360032
	0.250000	0.455405
	0.255000	0.485003
	0.260000	0.386342
	0.265000	0.356743
	0.270000	0.458694
	0.275000	0.485003
	0.280000	0.383053
	0.285000	0.356743
	0.290000	0.455405
	0.295000	0.481715
	0.300000	0.386342
	0.305000	0.353454
	0.310000	0.458694
	0.315000	0.488292
	0.320000	0.383053
	0.325000	0.353454
	0.330000	0.455405
	0.335000	0.488292
	0.340000	0.383053
	0.345000	0.356743
	0.350000	0.452116
	0.355000	0.478426
	0.360000	0.383053
	0.365000	0.356743
	0.370000	0.455405
	0.375000	0.478426
	0.380000	0.383053
	0.385000	0.353454
	0.390000	0.458694
	0.395000	0.481715
	0.400000	0.383053
	0.405000	0.356743
	0.410000	0.452116
	0.415000	0.475137
	0.420000	0.379764
	0.425000	0.353454
	0.430000	0.455405
	0.435000	0.478426
	0.440000	0.379764
	0.445000	0.350166
	0.450000	0.455405
	0.455000	0.478426
	0.460000	0.376475
	0.465000	0.353454
	0.470000	0.452116
	0.475000	0.478426
	0.480000	0.373187
	0.485000	0.353454
	0.490000	0.455405
	0.495000	0.475137
	0.500000	0.373187
	0.505000	0.353454
	0.510000	0.455405
	0.515000	0.471848
	0.520000	0.383053
	0.525000	0.353454
	0.530000	0.452116
	0.535000	0.475137
	0.540000	0.373187
	0.545000	0.353454
	0.550000	0.448827
	0.555000	0.471848
	0.560000	0.369898
	0.565000	0.350166
	0.570000	0.445539
	0.575000	0.465271
	0.580000	0.360032
	0.585000	0.337011
	0.590000	0.432384
	0.595000	0.458694
	0.600000	0.353454
	0.605000	0.327145
	0.610000	0.425806
	0.615000	0.442250
	0.620000	0.340299
	0.625000	0.317278
	0.630000	0.412651
	0.635000	0.435672
	0.640000	0.327145
	0.645000	0.310701
	0.650000	0.406074
	0.655000	0.425806
	0.660000	0.320567
	0.665000	0.300835
	0.670000	0.402785
	0.675000	0.425806
	0.680000	0.320567
	0.685000	0.297546
	0.690000	0.402785
	0.695000	0.422518
	0.700000	0.323856
	0.705000	0.300835
	0.710000	0.406074
	0.715000	0.432384
	0.720000	0.333722
	0.725000	0.313990
	0.730000	0.422518
	0.735000	0.445539
	0.740000	0.346877
	0.745000	0.333722
	0.750000	0.442250
	0.755000	0.465271
	0.760000	0.373187
	0.765000	0.360032
	0.770000	0.468560
	0.775000	0.491581
	0.780000	0.396208
	0.785000	0.386342
	0.790000	0.485003
	0.795000	0.508024
	0.800000	0.406074
	0.805000	0.392919
	0.810000	0.498158
	0.815000	0.511313
	0.820000	0.412651
	0.825000	0.399496
	0.830000	0.504736
	0.835000	0.514602
	0.840000	0.422518
	0.845000	0.406074
	0.850000	0.504736
	0.855000	0.517891
	0.860000	0.415940
	0.865000	0.399496
	0.870000	0.501447
	0.875000	0.517891
	0.880000	0.412651
	0.885000	0.399496
	0.890000	0.498158
	0.895000	0.511313
	0.900000	0.409363
	0.905000	0.389630
	0.910000	0.488292
	0.915000	0.504736
	0.920000	0.399496
	0.925000	0.389630
	0.930000	0.488292
	0.935000	0.501447
	0.940000	0.396208
	0.945000	0.383053
	0.950000	0.481715
	0.955000	0.498158
	0.960000	0.392919
	0.965000	0.379764
	0.970000	0.481715
	0.975000	0.498158
	0.980000	0.392919
	0.985000	0.376475
	0.990000	0.481715
	0.995000	0.494869
	1.000000	0.392919
	1.005000	0.379764
	1.010000	0.475137
	1.015000	0.488292
	1.020000	0.383053
	1.025000	0.376475
	1.030000	0.478426
	1.035000	0.485003
	1.040000	0.386342
	1.045000	0.373187
	1.050000	0.475137
	1.055000	0.485003
	1.060000	0.389630
	1.065000	0.373187
	1.070000	0.478426
	1.075000	0.491581
	1.080000	0.386342
	1.085000	0.373187
	1.090000	0.475137
	1.095000	0.485003
	1.100000	0.379764
	1.105000	0.369898
	1.110000	0.471848
	1.115000	0.485003
	1.120000	0.379764
	1.125000	0.373187
	1.130000	0.471848
	1.135000	0.481715
	1.140000	0.383053
	1.145000	0.369898
	1.150000	0.471848
	1.155000	0.485003
	1.160000	0.379764
	1.165000	0.369898
	1.170000	0.471848
	1.175000	0.478426
	1.180000	0.376475
	1.185000	0.369898
	1.190000	0.471848
	1.195000	0.478426
	1.200000	0.376475
	1.205000	0.369898
	1.210000	0.468560
	1.215000	0.478426
	1.220000	0.373187
	1.225000	0.366609
	1.230000	0.465271
	1.235000	0.475137
	1.240000	0.376475
	1.245000	0.369898
	1.250000	0.471848
	1.255000	0.475137
	1.260000	0.373187
	1.265000	0.369898
	1.270000	0.468560
	1.275000	0.478426
	1.280000	0.373187
	1.285000	0.369898
	1.290000	0.471848
	1.295000	0.475137
	1.300000	0.373187
	1.305000	0.366609
	1.310000	0.471848
	1.315000	0.478426
	1.320000	0.369898
	1.325000	0.369898
	1.330000	0.471848
	1.335000	0.478426
	1.340000	0.373187
	1.345000	0.366609
	1.350000	0.465271
	1.355000	0.475137
	1.360000	0.373187
	1.365000	0.369898
	1.370000	0.471848
	1.375000	0.475137
	1.380000	0.373187
	1.385000	0.366609
	1.390000	0.471848
	1.395000	0.475137
	1.400000	0.373187
	1.405000	0.366609
	1.410000	0.471848
	1.415000	0.471848
	1.420000	0.369898
	1.425000	0.369898
	1.430000	0.471848
	1.435000	0.475137
	1.440000	0.373187
	1.445000	0.369898
	1.450000	0.468560
	1.455000	0.471848
	1.460000	0.369898
	1.465000	0.366609
	1.470000	0.471848
	1.475000	0.471848
	1.480000	0.369898
	1.485000	0.366609
	1.490000	0.471848
	1.495000	0.475137
	1.500000	0.373187
	1.505000	0.373187
	1.510000	0.468560
	1.515000	0.471848
	1.520000	0.369898
	1.525000	0.366609
	1.530000	0.471848
	1.535000	0.478426
	1.540000	0.366609
	1.545000	0.373187
	1.550000	0.471848
	1.555000	0.475137
	1.560000	0.369898
	1.565000	0.369898
	1.570000	0.468560
	1.575000	0.471848
	1.580000	0.369898
	1.585000	0.369898
	1.590000	0.471848
	1.595000	0.471848
	1.600000	0.369898
	1.605000	0.369898
	1.610000	0.471848
	1.615000	0.475137
	1.620000	0.369898
	1.625000	0.373187
	1.630000	0.475137
	1.635000	0.471848
	1.640000	0.369898
	1.645000	0.369898
	1.650000	0.471848
	1.655000	0.475137
	1.660000	0.369898
	1.665000	0.369898
	1.670000	0.471848
	1.675000	0.475137
	1.680000	0.366609
	1.685000	0.373187
	1.690000	0.471848
	1.695000	0.475137
	1.700000	0.373187
	1.705000	0.373187
	1.710000	0.475137
	1.715000	0.475137
	1.720000	0.373187
	1.725000	0.373187
	1.730000	0.475137
	1.735000	0.478426
	1.740000	0.376475
	1.745000	0.376475
	1.750000	0.478426
	1.755000	0.468560
	1.760000	0.369898
	1.765000	0.373187
	1.770000	0.478426
	1.775000	0.475137
	1.780000	0.369898
	1.785000	0.376475
	1.790000	0.478426
	1.795000	0.475137
	1.800000	0.373187
	1.805000	0.373187
	1.810000	0.478426
	1.815000	0.475137
	1.820000	0.369898
	1.825000	0.379764
	1.830000	0.478426
	1.835000	0.475137
	1.840000	0.369898
	1.845000	0.376475
	1.850000	0.475137
	1.855000	0.471848
	1.860000	0.363321
	1.865000	0.373187
	1.870000	0.468560
	1.875000	0.461982
	1.880000	0.360032
	1.885000	0.363321
	1.890000	0.455405
	1.895000	0.448827
	1.900000	0.343588
	1.905000	0.346877
	1.910000	0.445539
	1.915000	0.435672
	1.920000	0.330433
	1.925000	0.333722
	1.930000	0.432384
	1.935000	0.425806
	1.940000	0.317278
	1.945000	0.327145
	1.950000	0.422518
	1.955000	0.415940
	1.960000	0.310701
	1.965000	0.320567
	1.970000	0.415940
	1.975000	0.412651
	1.980000	0.304124
	1.985000	0.317278
	1.990000	0.415940
	1.995000	0.409363
	2.000000	0.304124
	2.005000	0.307412
	2.010000	0.412651
	2.015000	0.406074
	2.020000	0.297546
	2.025000	0.300835
	2.030000	0.412651
	2.035000	0.399496
	2.040000	0.297546
	2.045000	0.304124
	2.050000	0.412651
	2.055000	0.402785
	2.060000	0.297546
	2.065000	0.307412
	2.070000	0.412651
	2.075000	0.412651
	2.080000	0.310701
	2.085000	0.327145
	2.090000	0.438961
	2.095000	0.435672
	2.100000	0.340299
	2.105000	0.356743
	2.110000	0.468560
	2.115000	0.468560
	2.120000	0.373187
	2.125000	0.383053
	2.130000	0.491581
	2.135000	0.485003
	2.140000	0.379764
	2.145000	0.396208
	2.150000	0.498158
	2.155000	0.485003
	2.160000	0.386342
	2.165000	0.402785
	2.170000	0.504736
	2.175000	0.491581
	2.180000	0.389630
	2.185000	0.402785
	2.190000	0.504736
	2.195000	0.491581
	2.200000	0.396208
	2.205000	0.406074
	2.210000	0.504736
	2.215000	0.491581
	2.220000	0.389630
	2.225000	0.399496
	2.230000	0.494869
	2.235000	0.481715
	2.240000	0.373187
	2.245000	0.389630
	2.250000	0.491581
	2.255000	0.471848
	2.260000	0.376475
	2.265000	0.386342
	2.270000	0.491581
	2.275000	0.475137
	2.280000	0.373187
	2.285000	0.389630
	2.290000	0.488292
	2.295000	0.471848
	2.300000	0.373187
	2.305000	0.383053
	2.310000	0.488292
	2.315000	0.478426
	2.320000	0.369898
	2.325000	0.389630
	2.330000	0.485003
	2.335000	0.475137
	2.340000	0.369898
	2.345000	0.379764
	2.350000	0.485003
	2.355000	0.468560
	2.360000	0.369898
	2.365000	0.383053
	2.370000	0.481715
	2.375000	0.468560
	2.380000	0.363321
	2.385000	0.376475
	2.390000	0.485003
	2.395000	0.465271
	2.400000	0.363321
	2.405000	0.379764
	2.410000	0.481715
	2.415000	0.465271
	2.420000	0.360032
	2.425000	0.383053
	2.430000	0.481715
	2.435000	0.461982
	2.440000	0.363321
	2.445000	0.379764
	2.450000	0.478426
	2.455000	0.461982
	2.460000	0.356743
	2.465000	0.379764
	2.470000	0.478426
	2.475000	0.461982
	2.480000	0.363321
	2.485000	0.379764
	2.490000	0.478426
	2.495000	0.458694
	2.500000	0.360032
	2.505000	0.379764
	2.510000	0.478426
	2.515000	0.458694
	2.520000	0.356743
	2.525000	0.379764
	2.530000	0.478426
	2.535000	0.458694
	2.540000	0.363321
	2.545000	0.379764
	2.550000	0.481715
	2.555000	0.461982
	2.560000	0.363321
	2.565000	0.383053
	2.570000	0.481715
	2.575000	0.458694
	2.580000	0.360032
	2.585000	0.379764
	2.590000	0.478426
	2.595000	0.461982
	2.600000	0.356743
	2.605000	0.379764
	2.610000	0.475137
	2.615000	0.458694
	2.620000	0.356743
	2.625000	0.383053
	2.630000	0.481715
	2.635000	0.461982
	2.640000	0.356743
	2.645000	0.383053
	2.650000	0.478426
	2.655000	0.461982
	2.660000	0.356743
	2.665000	0.383053
	2.670000	0.481715
	2.675000	0.458694
	2.680000	0.360032
	2.685000	0.383053
	2.690000	0.481715
	2.695000	0.458694
	2.700000	0.356743
	2.705000	0.379764
	2.710000	0.475137
	2.715000	0.458694
	2.720000	0.356743
	2.725000	0.379764
	2.730000	0.478426
	2.735000	0.458694
	2.740000	0.356743
	2.745000	0.383053
	2.750000	0.475137
	2.755000	0.455405
	2.760000	0.356743
	2.765000	0.376475
	2.770000	0.475137
	2.775000	0.458694
	2.780000	0.356743
	2.785000	0.379764
	2.790000	0.478426
	2.795000	0.452116
	2.800000	0.356743
	2.805000	0.383053
	2.810000	0.481715
	2.815000	0.458694
	2.820000	0.356743
	2.825000	0.379764
	2.830000	0.481715
	2.835000	0.452116
	2.840000	0.353454
	2.845000	0.379764
	2.850000	0.478426
	2.855000	0.448827
	2.860000	0.353454
	2.865000	0.379764
	2.870000	0.475137
	2.875000	0.455405
	2.880000	0.353454
	2.885000	0.379764
	2.890000	0.475137
	2.895000	0.455405
	2.900000	0.353454
	2.905000	0.379764
	2.910000	0.478426
	2.915000	0.452116
	2.920000	0.350166
	2.925000	0.383053
	2.930000	0.481715
	2.935000	0.448827
	2.940000	0.356743
	2.945000	0.376475
	2.950000	0.481715
	2.955000	0.452116
	2.960000	0.353454
	2.965000	0.379764
	2.970000	0.478426
	2.975000	0.445539
	2.980000	0.346877
	2.985000	0.379764
	2.990000	0.471848
	2.995000	0.448827
	3.000000	0.353454
	3.005000	0.379764
	3.010000	0.481715
	3.015000	0.448827
	3.020000	0.346877
	3.025000	0.379764
	3.030000	0.471848
	3.035000	0.445539
	3.040000	0.350166
	3.045000	0.379764
	3.050000	0.478426
	3.055000	0.448827
	3.060000	0.343588
	3.065000	0.376475
	3.070000	0.478426
	3.075000	0.448827
	3.080000	0.350166
	3.085000	0.379764
	3.090000	0.475137
	3.095000	0.448827
	3.100000	0.346877
	3.105000	0.379764
	3.110000	0.478426
	3.115000	0.445539
	3.120000	0.346877
	3.125000	0.379764
	3.130000	0.478426
	3.135000	0.445539
	3.140000	0.343588
	3.145000	0.379764
	3.150000	0.475137
	3.155000	0.442250
	3.160000	0.346877
	3.165000	0.379764
	3.170000	0.475137
	3.175000	0.442250
	3.180000	0.346877
	3.185000	0.379764
	3.190000	0.471848
	3.195000	0.442250
	3.200000	0.346877
	3.205000	0.376475
	3.210000	0.475137
	3.215000	0.442250
	3.220000	0.346877
	3.225000	0.376475
	3.230000	0.471848
	3.235000	0.438961
	3.240000	0.343588
	3.245000	0.379764
	3.250000	0.471848
	3.255000	0.442250
	3.260000	0.337011
	3.265000	0.369898
	3.270000	0.465271
	3.275000	0.429095
	3.280000	0.327145
	3.285000	0.353454
	3.290000	0.445539
	3.295000	0.409363
	3.300000	0.307412
	3.305000	0.340299
	3.310000	0.432384
	3.315000	0.399496
	3.320000	0.294257
	3.325000	0.330433
	3.330000	0.425806
	3.335000	0.389630
	3.340000	0.290969
	3.345000	0.333722
	3.350000	0.425806
	3.355000	0.392919
	3.360000	0.297546
	3.365000	0.337011
	3.370000	0.432384
	3.375000	0.399496
	3.380000	0.307412
	3.385000	0.340299
	3.390000	0.438961
	3.395000	0.409363
	3.400000	0.317278
	3.405000	0.353454
	3.410000	0.455405
	3.415000	0.422518
	3.420000	0.330433
	3.425000	0.366609
	3.430000	0.468560
	3.435000	0.435672
	3.440000	0.343588
	3.445000	0.386342
	3.450000	0.485003
	3.455000	0.448827
	3.460000	0.356743
	3.465000	0.399496
	3.470000	0.491581
	3.475000	0.452116
	3.480000	0.366609
	3.485000	0.396208
	3.490000	0.494869
	3.495000	0.455405
	3.500000	0.356743
	3.505000	0.402785
	3.510000	0.494869
	3.515000	0.452116
	3.520000	0.363321
	3.525000	0.396208
	3.530000	0.494869
	3.535000	0.455405
	3.540000	0.360032
	3.545000	0.399496
	3.550000	0.498158
	3.555000	0.452116
	3.560000	0.366609
	3.565000	0.399496
	3.570000	0.498158
	3.575000	0.458694
	3.580000	0.356743
	3.585000	0.396208
	3.590000	0.491581
	3.595000	0.448827
	3.600000	0.353454
	3.605000	0.396208
	3.610000	0.488292
	3.615000	0.445539
	3.620000	0.356743
	3.625000	0.389630
	3.630000	0.485003
	3.635000	0.442250
	3.640000	0.353454
	3.645000	0.389630
	3.650000	0.485003
	3.655000	0.445539
	3.660000	0.353454
	3.665000	0.392919
	3.670000	0.491581
	3.675000	0.442250
	3.680000	0.350166
	3.685000	0.392919
	3.690000	0.481715
	3.695000	0.442250
	3.700000	0.346877
	3.705000	0.386342
	3.710000	0.478426
	3.715000	0.438961
	3.720000	0.343588
	3.725000	0.386342
	3.730000	0.475137
	3.735000	0.432384
	3.740000	0.343588
	3.745000	0.386342
	3.750000	0.478426
	3.755000	0.432384
	3.760000	0.343588
	3.765000	0.386342
	3.770000	0.478426
	3.775000	0.435672
	3.780000	0.340299
	3.785000	0.379764
	3.790000	0.475137
	3.795000	0.432384
	3.800000	0.340299
	3.805000	0.383053
	3.810000	0.471848
	3.815000	0.432384
	3.820000	0.340299
	3.825000	0.389630
	3.830000	0.475137
	3.835000	0.425806
	3.840000	0.340299
	3.845000	0.383053
	3.850000	0.478426
	3.855000	0.432384
	3.860000	0.337011
	3.865000	0.383053
	3.870000	0.471848
	3.875000	0.429095
	3.880000	0.340299
	3.885000	0.383053
	3.890000	0.475137
	3.895000	0.429095
	3.900000	0.337011
	3.905000	0.386342
	3.910000	0.475137
	3.915000	0.429095
	3.920000	0.333722
	3.925000	0.383053
	3.930000	0.471848
	3.935000	0.429095
	3.940000	0.333722
	3.945000	0.379764
	3.950000	0.471848
	3.955000	0.425806
	3.960000	0.337011
	3.965000	0.383053
	3.970000	0.475137
	3.975000	0.425806
	3.980000	0.333722
	3.985000	0.383053
	3.990000	0.475137
	3.995000	0.429095
	4.000000	0.333722
	4.005000	0.379764
	4.010000	0.478426
	4.015000	0.422518
	4.020000	0.333722
	4.025000	0.383053
	4.030000	0.471848
	4.035000	0.422518
	4.040000	0.333722
	4.045000	0.383053
	4.050000	0.475137
	4.055000	0.425806
	4.060000	0.333722
	4.065000	0.386342
	4.070000	0.468560
	4.075000	0.425806
	4.080000	0.333722
	4.085000	0.386342
	4.090000	0.471848
	4.095000	0.422518
	4.100000	0.333722
	4.105000	0.383053
	4.110000	0.475137
	4.115000	0.425806
	4.120000	0.330433
	4.125000	0.383053
	4.130000	0.475137
	4.135000	0.419229
	4.140000	0.333722
	4.145000	0.379764
	4.150000	0.475137
	4.155000	0.422518
	4.160000	0.333722
	4.165000	0.383053
	4.170000	0.471848
	4.175000	0.422518
	4.180000	0.330433
	4.185000	0.383053
	4.190000	0.475137
	4.195000	0.425806
	4.200000	0.337011
	4.205000	0.386342
	4.210000	0.471848
	4.215000	0.419229
	4.220000	0.330433
	4.225000	0.383053
	4.230000	0.475137
	4.235000	0.415940
	4.240000	0.330433
	4.245000	0.386342
	4.250000	0.475137
	4.255000	0.419229
	4.260000	0.337011
	4.265000	0.383053
	4.270000	0.471848
	4.275000	0.425806
	4.280000	0.333722
	4.285000	0.383053
	4.290000	0.471848
	4.295000	0.419229
	4.300000	0.330433
	4.305000	0.386342
	4.310000	0.471848
	4.315000	0.419229
	4.320000	0.333722
	4.325000	0.386342
	4.330000	0.471848
	4.335000	0.419229
	4.340000	0.330433
	4.345000	0.389630
	4.350000	0.471848
	4.355000	0.419229
	4.360000	0.333722
	4.365000	0.386342
	4.370000	0.471848
	4.375000	0.415940
	4.380000	0.330433
	4.385000	0.386342
	4.390000	0.471848
	4.395000	0.415940
	4.400000	0.333722
	4.405000	0.383053
	4.410000	0.471848
	4.415000	0.415940
	4.420000	0.330433
	4.425000	0.383053
	4.430000	0.471848
	4.435000	0.419229
	4.440000	0.330433
	4.445000	0.389630
	4.450000	0.468560
	4.455000	0.422518
	4.460000	0.333722
	4.465000	0.383053
	4.470000	0.471848
	4.475000	0.419229
	4.480000	0.327145
	4.485000	0.386342
	4.490000	0.471848
	4.495000	0.412651
	4.500000	0.330433
	4.505000	0.383053
	4.510000	0.468560
	4.515000	0.412651
	4.520000	0.327145
	4.525000	0.383053
	4.530000	0.475137
	4.535000	0.415940
	4.540000	0.330433
	4.545000	0.389630
	4.550000	0.471848
	4.555000	0.412651
	4.560000	0.323856
	4.565000	0.386342
	4.570000	0.468560
	4.575000	0.409363
	4.580000	0.327145
	4.585000	0.383053
	4.590000	0.465271
	4.595000	0.409363
	4.600000	0.323856
	4.605000	0.376475
	4.610000	0.461982
	4.615000	0.409363
	4.620000	0.313990
	4.625000	0.369898
	4.630000	0.448827
	4.635000	0.392919
	4.640000	0.304124
	4.645000	0.356743
	4.650000	0.438961
	4.655000	0.379764
	4.660000	0.290969
	4.665000	0.350166
	4.670000	0.432384
	4.675000	0.366609
	4.680000	0.287680
	4.685000	0.346877
	4.690000	0.429095
	4.695000	0.369898
	4.700000	0.287680
	4.705000	0.346877
	4.710000	0.429095
	4.715000	0.366609
	4.720000	0.281102
	4.725000	0.350166
	4.730000	0.429095
	4.735000	0.369898
	4.740000	0.287680
	4.745000	0.353454
	4.750000	0.432384
	4.755000	0.373187
	4.760000	0.294257
	4.765000	0.353454
	4.770000	0.435672
	4.775000	0.379764
	4.780000	0.300835
	4.785000	0.360032
	4.790000	0.445539
	4.795000	0.386342
	4.800000	0.310701
	4.805000	0.373187
	4.810000	0.458694
	4.815000	0.396208
	4.820000	0.317278
	4.825000	0.386342
	4.830000	0.468560
	4.835000	0.406074
	4.840000	0.330433
	4.845000	0.399496
	4.850000	0.478426
	4.855000	0.419229
	4.860000	0.337011
	4.865000	0.396208
	4.870000	0.485003
	4.875000	0.415940
	4.880000	0.340299
	4.885000	0.406074
	4.890000	0.485003
	4.895000	0.419229
	4.900000	0.340299
	4.905000	0.406074
	4.910000	0.488292
	4.915000	0.425806
	4.920000	0.343588
	4.925000	0.409363
	4.930000	0.491581
	4.935000	0.429095
	4.940000	0.343588
	4.945000	0.406074
	4.950000	0.481715
	4.955000	0.419229
	4.960000	0.337011
	4.965000	0.399496
	4.970000	0.475137
	4.975000	0.419229
	4.980000	0.337011
	4.985000	0.399496
	4.990000	0.478426
	4.995000	0.412651
	5.000000	0.333722
	5.005000	0.396208
	5.010000	0.471848
	5.015000	0.406074
	5.020000	0.330433
	5.025000	0.392919
	5.030000	0.471848
	5.035000	0.412651
	5.040000	0.327145
	5.045000	0.392919
	5.050000	0.468560
	5.055000	0.406074
	5.060000	0.323856
	5.065000	0.392919
	5.070000	0.468560
	5.075000	0.402785
	5.080000	0.327145
	5.085000	0.392919
	5.090000	0.471848
	5.095000	0.402785
	5.100000	0.327145
	5.105000	0.396208
	5.110000	0.471848
	5.115000	0.402785
	5.120000	0.327145
	5.125000	0.392919
	5.130000	0.468560
	5.135000	0.406074
	5.140000	0.323856
	5.145000	0.392919
	5.150000	0.471848
	5.155000	0.402785
	5.160000	0.320567
	5.165000	0.392919
	5.170000	0.468560
	5.175000	0.402785
	5.180000	0.320567
	5.185000	0.392919
	5.190000	0.465271
	5.195000	0.399496
	5.200000	0.320567
	5.205000	0.386342
	5.210000	0.465271
	5.215000	0.392919
	5.220000	0.320567
	5.225000	0.389630
	5.230000	0.461982
	5.235000	0.402785
	5.240000	0.320567
	5.245000	0.386342
	5.250000	0.461982
	5.255000	0.396208
	5.260000	0.313990
	5.265000	0.386342
	5.270000	0.465271
	5.275000	0.392919
	5.280000	0.317278
	5.285000	0.383053
	5.290000	0.458694
	5.295000	0.392919
	5.300000	0.313990
	5.305000	0.383053
	5.310000	0.461982
	5.315000	0.392919
	5.320000	0.310701
	5.325000	0.383053
	5.330000	0.458694
	5.335000	0.389630
	5.340000	0.313990
	5.345000	0.386342
	5.350000	0.461982
	5.355000	0.386342
	5.360000	0.313990
	5.365000	0.389630
	5.370000	0.458694
	5.375000	0.389630
	5.380000	0.310701
	5.385000	0.386342
	5.390000	0.461982
	5.395000	0.386342
	5.400000	0.313990
	5.405000	0.386342
	5.410000	0.461982
	5.415000	0.389630
	5.420000	0.313990
	5.425000	0.386342
	5.430000	0.461982
	5.435000	0.386342
	5.440000	0.310701
	5.445000	0.386342
	5.450000	0.458694
	5.455000	0.386342
	5.460000	0.313990
	5.465000	0.389630
	5.470000	0.461982
	5.475000	0.386342
	5.480000	0.313990
	5.485000	0.386342
	5.490000	0.461982
	5.495000	0.386342
	5.500000	0.310701
	5.505000	0.386342
	5.510000	0.458694
	5.515000	0.386342
	5.520000	0.310701
	5.525000	0.386342
	5.530000	0.461982
	5.535000	0.386342
	5.540000	0.310701
	5.545000	0.386342
	5.550000	0.458694
	5.555000	0.386342
	5.560000	0.313990
	5.565000	0.383053
	5.570000	0.452116
	5.575000	0.386342
	5.580000	0.310701
	5.585000	0.386342
	5.590000	0.455405
	5.595000	0.383053
	5.600000	0.313990
	5.605000	0.386342
	5.610000	0.455405
	5.615000	0.383053
	5.620000	0.313990
	5.625000	0.383053
	5.630000	0.455405
	5.635000	0.383053
	5.640000	0.307412
	5.645000	0.389630
	5.650000	0.455405
	5.655000	0.383053
	5.660000	0.317278
	5.665000	0.392919
	5.670000	0.458694
	5.675000	0.383053
	5.680000	0.310701
	5.685000	0.389630
	5.690000	0.458694
	5.695000	0.383053
	5.700000	0.313990
	5.705000	0.392919
	5.710000	0.461982
	5.715000	0.386342
	5.720000	0.313990
	5.725000	0.389630
	5.730000	0.461982
	5.735000	0.386342
	5.740000	0.310701
	5.745000	0.389630
	5.750000	0.458694
	5.755000	0.386342
	5.760000	0.310701
	5.765000	0.392919
	5.770000	0.465271
	5.775000	0.383053
	5.780000	0.313990
	5.785000	0.396208
	5.790000	0.458694
	5.795000	0.379764
	5.800000	0.313990
	5.805000	0.392919
	5.810000	0.461982
	5.815000	0.379764
	5.820000	0.317278
	5.825000	0.396208
	5.830000	0.458694
	5.835000	0.389630
	5.840000	0.313990
	5.845000	0.392919
	5.850000	0.458694
	5.855000	0.379764
	5.860000	0.310701
	5.865000	0.392919
	5.870000	0.455405
	5.875000	0.383053
	5.880000	0.317278
	5.885000	0.392919
	5.890000	0.458694
	5.895000	0.383053
	5.900000	0.313990
	5.905000	0.389630
	5.910000	0.458694
	5.915000	0.383053
	5.920000	0.313990
	5.925000	0.392919
	5.930000	0.458694
	5.935000	0.383053
	5.940000	0.317278
	5.945000	0.392919
	5.950000	0.461982
	5.955000	0.379764
	5.960000	0.313990
	5.965000	0.399496
	5.970000	0.458694
	5.975000	0.383053
	5.980000	0.317278
	5.985000	0.396208
	5.990000	0.465271
	5.995000	0.376475
	6.000000	0.317278
	6.005000	0.392919
	6.010000	0.461982
	6.015000	0.376475
	6.020000	0.310701
	6.025000	0.396208
	6.030000	0.461982
	6.035000	0.379764
	6.040000	0.313990
	6.045000	0.396208
	6.050000	0.458694
	6.055000	0.376475
	6.060000	0.313990
	6.065000	0.392919
	6.070000	0.458694
	6.075000	0.379764
	6.080000	0.313990
	6.085000	0.399496
	6.090000	0.455405
	6.095000	0.376475
	6.100000	0.317278
	6.105000	0.396208
	6.110000	0.458694
	6.115000	0.376475
	6.120000	0.317278
	6.125000	0.396208
	6.130000	0.458694
	6.135000	0.376475
	6.140000	0.313990
	6.145000	0.396208
	6.150000	0.458694
	6.155000	0.376475
	6.160000	0.317278
	6.165000	0.399496
	6.170000	0.461982
	6.175000	0.376475
	6.180000	0.317278
	6.185000	0.392919
	6.190000	0.455405
	6.195000	0.373187
	6.200000	0.310701
	6.205000	0.399496
	6.210000	0.458694
	6.215000	0.373187
	6.220000	0.320567
	6.225000	0.402785
	6.230000	0.455405
	6.235000	0.379764
	6.240000	0.317278
	6.245000	0.396208
	6.250000	0.452116
	6.255000	0.373187
	6.260000	0.313990
	6.265000	0.402785
	6.270000	0.458694
	6.275000	0.379764
	6.280000	0.310701
	6.285000	0.402785
	6.290000	0.455405
	6.295000	0.373187
	6.300000	0.317278
	6.305000	0.399496
	6.310000	0.458694
	6.315000	0.373187
	6.320000	0.313990
	6.325000	0.399496
	6.330000	0.458694
	6.335000	0.373187
	6.340000	0.313990
	6.345000	0.396208
	6.350000	0.461982
	6.355000	0.376475
	6.360000	0.313990
	6.365000	0.399496
	6.370000	0.458694
	6.375000	0.373187
	6.380000	0.320567
	6.385000	0.402785
	6.390000	0.461982
	6.395000	0.379764
	6.400000	0.317278
	6.405000	0.406074
	6.410000	0.458694
	6.415000	0.376475
	6.420000	0.317278
	6.425000	0.409363
	6.430000	0.458694
	6.435000	0.376475
	6.440000	0.317278
	6.445000	0.402785
	6.450000	0.461982
	6.455000	0.373187
	6.460000	0.313990
	6.465000	0.402785
	6.470000	0.461982
	6.475000	0.373187
	6.480000	0.317278
	6.485000	0.406074
	6.490000	0.465271
	6.495000	0.376475
	6.500000	0.320567
	6.505000	0.406074
	6.510000	0.458694
	6.515000	0.376475
	6.520000	0.320567
	6.525000	0.406074
	6.530000	0.461982
	6.535000	0.376475
	6.540000	0.317278
	6.545000	0.406074
	6.550000	0.458694
	6.555000	0.373187
	6.560000	0.313990
	6.565000	0.406074
	6.570000	0.458694
	6.575000	0.369898
	6.580000	0.320567
	6.585000	0.402785
	6.590000	0.458694
	6.595000	0.373187
	6.600000	0.320567
	6.605000	0.406074
	6.610000	0.458694
	6.615000	0.369898
	6.620000	0.317278
	6.625000	0.402785
	6.630000	0.455405
	6.635000	0.373187
	6.640000	0.317278
	6.645000	0.402785
	6.650000	0.455405
	6.655000	0.369898
	6.660000	0.317278
	6.665000	0.406074
	6.670000	0.455405
	6.675000	0.369898
	6.680000	0.317278
	6.685000	0.402785
	6.690000	0.455405
	6.695000	0.366609
	6.700000	0.317278
	6.705000	0.406074
	6.710000	0.452116
	6.715000	0.366609
	6.720000	0.317278
	6.725000	0.402785
	6.730000	0.452116
	6.735000	0.363321
	6.740000	0.317278
	6.745000	0.402785
	6.750000	0.452116
	6.755000	0.353454
	6.760000	0.307412
	6.765000	0.392919
	6.770000	0.445539
	6.775000	0.346877
	6.780000	0.294257
	6.785000	0.379764
	6.790000	0.429095
	6.795000	0.330433
	6.800000	0.281102
	6.805000	0.369898
	6.810000	0.415940
	6.815000	0.327145
	6.820000	0.274525
	6.825000	0.366609
	6.830000	0.412651
	6.835000	0.320567
	6.840000	0.271236
	6.845000	0.360032
	6.850000	0.412651
	6.855000	0.317278
	6.860000	0.267948
	6.865000	0.360032
	6.870000	0.412651
	6.875000	0.323856
	6.880000	0.274525
	6.885000	0.366609
	6.890000	0.415940
	6.895000	0.323856
	6.900000	0.284391
	6.905000	0.376475
	6.910000	0.425806
	6.915000	0.337011
	6.920000	0.290969
	6.925000	0.386342
	6.930000	0.438961
	6.935000	0.350166
	6.940000	0.304124
	6.945000	0.399496
	6.950000	0.448827
	6.955000	0.360032
	6.960000	0.320567
	6.965000	0.412651
	6.970000	0.465271
	6.975000	0.373187
	6.980000	0.327145
	6.985000	0.419229
	6.990000	0.468560
	6.995000	0.373187
	7.000000	0.333722
	7.005000	0.422518
	7.010000	0.468560
	7.015000	0.369898
	7.020000	0.323856
	7.025000	0.415940
	7.030000	0.461982
	7.035000	0.366609
	7.040000	0.330433
	7.045000	0.419229
	7.050000	0.458694
	7.055000	0.366609
	7.060000	0.323856
	7.065000	0.415940
	7.070000	0.461982
	7.075000	0.366609
	7.080000	0.323856
	7.085000	0.415940
	7.090000	0.455405
	7.095000	0.363321
	7.100000	0.320567
	7.105000	0.406074
	7.110000	0.458694
	7.115000	0.363321
	7.120000	0.317278
	7.125000	0.412651
	7.130000	0.455405
	7.135000	0.356743
	7.140000	0.317278
	7.145000	0.412651
	7.150000	0.461982
	7.155000	0.356743
	7.160000	0.317278
	7.165000	0.415940
	7.170000	0.455405
	7.175000	0.360032
	7.180000	0.320567
	7.185000	0.409363
	7.190000	0.455405
	7.195000	0.363321
	7.200000	0.317278
	7.205000	0.415940
	7.210000	0.458694
	7.215000	0.363321
	7.220000	0.320567
	7.225000	0.412651
	7.230000	0.458694
	7.235000	0.366609
	7.240000	0.327145
	7.245000	0.415940
	7.250000	0.458694
	7.255000	0.363321
	7.260000	0.323856
	7.265000	0.415940
	7.270000	0.458694
	7.275000	0.363321
	7.280000	0.327145
	7.285000	0.415940
	7.290000	0.461982
	7.295000	0.366609
	7.300000	0.330433
	7.305000	0.422518
	7.310000	0.465271
	7.315000	0.366609
	7.320000	0.327145
	7.325000	0.422518
	7.330000	0.465271
	7.335000	0.366609
	7.340000	0.327145
	7.345000	0.422518
	7.350000	0.465271
	7.355000	0.366609
	7.360000	0.327145
	7.365000	0.419229
	7.370000	0.461982
	7.375000	0.363321
	7.380000	0.330433
	7.385000	0.422518
	7.390000	0.465271
	7.395000	0.366609
	7.400000	0.327145
	7.405000	0.422518
	7.410000	0.458694
	7.415000	0.363321
	7.420000	0.327145
	7.425000	0.419229
	7.430000	0.458694
	7.435000	0.363321
	7.440000	0.327145
	7.445000	0.425806
	7.450000	0.455405
	7.455000	0.363321
	7.460000	0.327145
	7.465000	0.425806
	7.470000	0.458694
	7.475000	0.360032
	7.480000	0.320567
	7.485000	0.422518
	7.490000	0.458694
	7.495000	0.366609
	7.500000	0.333722
	7.505000	0.419229
	7.510000	0.461982
	7.515000	0.363321
	7.520000	0.327145
	7.525000	0.419229
	7.530000	0.461982
	7.535000	0.363321
	7.540000	0.327145
	7.545000	0.422518
	7.550000	0.458694
	7.555000	0.366609
	7.560000	0.327145
	7.565000	0.422518
	7.570000	0.458694
	7.575000	0.360032
	7.580000	0.327145
	7.585000	0.422518
	7.590000	0.458694
	7.595000	0.360032
	7.600000	0.330433
	7.605000	0.419229
	7.610000	0.452116
	7.615000	0.360032
	7.620000	0.327145
	7.625000	0.422518
	7.630000	0.455405
	7.635000	0.360032
	7.640000	0.327145
	7.645000	0.419229
	7.650000	0.455405
	7.655000	0.356743
	7.660000	0.327145
	7.665000	0.422518
	7.670000	0.455405
	7.675000	0.360032
	7.680000	0.323856
	7.685000	0.425806
	7.690000	0.452116
	7.695000	0.356743
	7.700000	0.323856
	7.705000	0.419229
	7.710000	0.455405
	7.715000	0.353454
	7.720000	0.320567
	7.725000	0.415940
	7.730000	0.452116
	7.735000	0.356743
	7.740000	0.320567
	7.745000	0.419229
	7.750000	0.448827
	7.755000	0.350166
	7.760000	0.317278
	7.765000	0.419229
	7.770000	0.448827
	7.775000	0.353454
	7.780000	0.320567
	7.785000	0.419229
	7.790000	0.448827
	7.795000	0.353454
	7.800000	0.317278
	7.805000	0.422518
	7.810000	0.448827
	7.815000	0.350166
	7.820000	0.320567
	7.825000	0.419229
	7.830000	0.445539
	7.835000	0.350166
	7.840000	0.320567
	7.845000	0.419229
	7.850000	0.445539
	7.855000	0.343588
	7.860000	0.317278
	7.865000	0.419229
	7.870000	0.448827
	7.875000	0.346877
	7.880000	0.320567
	7.885000	0.415940
	7.890000	0.442250
	7.895000	0.350166
	7.900000	0.320567
	7.905000	0.419229
	7.910000	0.445539
	7.915000	0.346877
	7.920000	0.317278
	7.925000	0.419229
	7.930000	0.445539
	7.935000	0.343588
	7.940000	0.317278
	7.945000	0.419229
	7.950000	0.445539
	7.955000	0.343588
	7.960000	0.317278
	7.965000	0.415940
	7.970000	0.448827
	7.975000	0.346877
	7.980000	0.320567
	7.985000	0.415940
	7.990000	0.438961
	7.995000	0.343588
	8.000000	0.317278
	8.005000	0.419229
	8.010000	0.442250
	8.015000	0.343588
	8.020000	0.317278
	8.025000	0.415940
	8.030000	0.445539
	8.035000	0.343588
	8.040000	0.320567
	8.045000	0.419229
	8.050000	0.442250
	8.055000	0.343588
	8.060000	0.317278
	8.065000	0.419229
	8.070000	0.445539
	8.075000	0.343588
	8.080000	0.317278
	8.085000	0.419229
	8.090000	0.438961
	8.095000	0.340299
	8.100000	0.317278
	8.105000	0.415940
	8.110000	0.435672
	8.115000	0.337011
	8.120000	0.313990
	8.125000	0.412651
	8.130000	0.435672
	8.135000	0.340299
	8.140000	0.313990
	8.145000	0.422518
	8.150000	0.432384
	8.155000	0.333722
	8.160000	0.313990
	8.165000	0.412651
	8.170000	0.438961
	8.175000	0.333722
	8.180000	0.307412
	8.185000	0.415940
	8.190000	0.432384
	8.195000	0.330433
	8.200000	0.310701
	8.205000	0.409363
	8.210000	0.432384
	8.215000	0.327145
	8.220000	0.304124
	8.225000	0.406074
	8.230000	0.429095
	8.235000	0.323856
	8.240000	0.304124
	8.245000	0.409363
	8.250000	0.425806
	8.255000	0.327145
	8.260000	0.304124
	8.265000	0.412651
	8.270000	0.429095
	8.275000	0.323856
	8.280000	0.307412
	8.285000	0.402785
	8.290000	0.422518
	8.295000	0.327145
	8.300000	0.304124
	8.305000	0.402785
	8.310000	0.422518
	8.315000	0.323856
	8.320000	0.307412
	8.325000	0.409363
	8.330000	0.422518
	8.335000	0.320567
	8.340000	0.300835
	8.345000	0.406074
	8.350000	0.425806
	8.355000	0.323856
	8.360000	0.307412
	8.365000	0.406074
	8.370000	0.425806
	8.375000	0.323856
	8.380000	0.304124
	8.385000	0.406074
	8.390000	0.422518
	8.395000	0.320567
	8.400000	0.300835
	8.405000	0.409363
	8.410000	0.422518
	8.415000	0.320567
	8.420000	0.307412
	8.425000	0.412651
	8.430000	0.422518
	8.435000	0.323856
	8.440000	0.310701
	8.445000	0.402785
	8.450000	0.425806
	8.455000	0.320567
	8.460000	0.304124
	8.465000	0.406074
	8.470000	0.422518
	8.475000	0.323856
	8.480000	0.307412
	8.485000	0.409363
	8.490000	0.419229
	8.495000	0.317278
	8.500000	0.307412
	8.505000	0.409363
	8.510000	0.425806
	8.515000	0.320567
	8.520000	0.307412
	8.525000	0.409363
	8.530000	0.422518
	8.535000	0.320567
	8.540000	0.307412
	8.545000	0.409363
	8.550000	0.422518
	8.555000	0.320567
	8.560000	0.307412
	8.565000	0.409363
	8.570000	0.419229
	8.575000	0.317278
	8.580000	0.304124
	8.585000	0.412651
	8.590000	0.415940
	8.595000	0.320567
	8.600000	0.304124
	8.605000	0.409363
	8.610000	0.425806
	8.615000	0.317278
	8.620000	0.304124
	8.625000	0.409363
	8.630000	0.419229
	8.635000	0.317278
	8.640000	0.304124
	8.645000	0.412651
	8.650000	0.415940
	8.655000	0.313990
	8.660000	0.304124
	8.665000	0.406074
	8.670000	0.415940
	8.675000	0.317278
	8.680000	0.307412
	8.685000	0.406074
	8.690000	0.419229
	8.695000	0.313990
	8.700000	0.307412
	8.705000	0.409363
	8.710000	0.419229
	8.715000	0.313990
	8.720000	0.304124
	8.725000	0.406074
	8.730000	0.415940
	8.735000	0.320567
	8.740000	0.304124
	8.745000	0.406074
	8.750000	0.415940
	8.755000	0.310701
	8.760000	0.304124
	8.765000	0.406074
	8.770000	0.415940
	8.775000	0.313990
	8.780000	0.310701
	8.785000	0.409363
	8.790000	0.412651
	8.795000	0.317278
	8.800000	0.307412
	8.805000	0.406074
	8.810000	0.419229
	8.815000	0.313990
	8.820000	0.300835
	8.825000	0.406074
	8.830000	0.419229
	8.835000	0.310701
	8.840000	0.307412
	8.845000	0.409363
	8.850000	0.419229
	8.855000	0.313990
	8.860000	0.307412
	8.865000	0.409363
	8.870000	0.412651
	8.875000	0.310701
	8.880000	0.304124
	8.885000	0.409363
	8.890000	0.415940
	8.895000	0.310701
	8.900000	0.307412
	8.905000	0.412651
	8.910000	0.412651
	8.915000	0.307412
	8.920000	0.307412
	8.925000	0.402785
	8.930000	0.415940
	8.935000	0.307412
	8.940000	0.307412
	8.945000	0.409363
	8.950000	0.412651
	8.955000	0.307412
	8.960000	0.307412
	8.965000	0.409363
	8.970000	0.409363
	8.975000	0.310701
	8.980000	0.304124
	8.985000	0.406074
	8.990000	0.412651
	8.995000	0.304124
	9.000000	0.304124
	9.005000	0.409363
	9.010000	0.409363
	9.015000	0.304124
	9.020000	0.304124
	9.025000	0.409363
	9.030000	0.412651
	9.035000	0.307412
	9.040000	0.304124
	9.045000	0.409363
	9.050000	0.409363
	9.055000	0.304124
	9.060000	0.304124
	9.065000	0.406074
	9.070000	0.409363
	9.075000	0.304124
	9.080000	0.304124
	9.085000	0.406074
	9.090000	0.409363
	9.095000	0.300835
	9.100000	0.300835
	9.105000	0.402785
	9.110000	0.406074
	9.115000	0.304124
	9.120000	0.304124
	9.125000	0.406074
	9.130000	0.406074
	9.135000	0.300835
	9.140000	0.300835
	9.145000	0.402785
	9.150000	0.406074
	9.155000	0.300835
	9.160000	0.304124
	9.165000	0.406074
	9.170000	0.402785
	9.175000	0.300835
	9.180000	0.304124
	9.185000	0.402785
	9.190000	0.406074
	9.195000	0.304124
	9.200000	0.304124
	9.205000	0.406074
	9.210000	0.402785
	9.215000	0.297546
	9.220000	0.304124
	9.225000	0.406074
	9.230000	0.406074
	9.235000	0.300835
	9.240000	0.300835
	9.245000	0.409363
	9.250000	0.402785
	9.255000	0.294257
	9.260000	0.300835
	9.265000	0.406074
	9.270000	0.396208
	9.275000	0.297546
	9.280000	0.300835
	9.285000	0.406074
	9.290000	0.402785
	9.295000	0.297546
	9.300000	0.300835
	9.305000	0.406074
	9.310000	0.399496
	9.315000	0.294257
	9.320000	0.304124
	9.325000	0.406074
	9.330000	0.406074
	9.335000	0.297546
	9.340000	0.307412
	9.345000	0.406074
	9.350000	0.399496
	9.355000	0.300835
	9.360000	0.304124
	9.365000	0.409363
	9.370000	0.399496
	9.375000	0.297546
	9.380000	0.304124
	9.385000	0.406074
	9.390000	0.406074
	9.395000	0.300835
	9.400000	0.300835
	9.405000	0.406074
	9.410000	0.399496
	9.415000	0.294257
	9.420000	0.307412
	9.425000	0.406074
	9.430000	0.402785
	9.435000	0.300835
	9.440000	0.300835
	9.445000	0.412651
	9.450000	0.399496
	9.455000	0.294257
	9.460000	0.304124
	9.465000	0.406074
	9.470000	0.396208
	9.475000	0.297546
	9.480000	0.307412
	9.485000	0.409363
	9.490000	0.402785
	9.495000	0.300835
	9.500000	0.304124
	9.505000	0.409363
	9.510000	0.402785
	9.515000	0.300835
	9.520000	0.307412
	9.525000	0.415940
	9.530000	0.399496
	9.535000	0.297546
	9.540000	0.310701
	9.545000	0.412651
	9.550000	0.402785
	9.555000	0.300835
	9.560000	0.307412
	9.565000	0.412651
	9.570000	0.409363
	9.575000	0.297546
	9.580000	0.307412
	9.585000	0.409363
	9.590000	0.402785
	9.595000	0.300835
	9.600000	0.313990
	9.605000	0.412651
	9.610000	0.402785
	9.615000	0.304124
	9.620000	0.310701
	9.625000	0.415940
	9.630000	0.402785
	9.635000	0.297546
	9.640000	0.310701
	9.645000	0.412651
	9.650000	0.399496
	9.655000	0.297546
	9.660000	0.310701
	9.665000	0.409363
	9.670000	0.402785
	9.675000	0.297546
	9.680000	0.307412
	9.685000	0.409363
	9.690000	0.402785
	9.695000	0.300835
	9.700000	0.307412
	9.705000	0.409363
	9.710000	0.399496
	9.715000	0.294257
	9.720000	0.307412
	9.725000	0.409363
	9.730000	0.402785
	9.735000	0.297546
	9.740000	0.310701
	9.745000	0.412651
	9.750000	0.402785
	9.755000	0.294257
	9.760000	0.310701
	9.765000	0.412651
	9.770000	0.396208
	9.775000	0.297546
	9.780000	0.313990
	9.785000	0.409363
	9.790000	0.396208
	9.795000	0.294257
	9.800000	0.307412
	9.805000	0.412651
	9.810000	0.402785
	9.815000	0.294257
	9.820000	0.307412
	9.825000	0.415940
	9.830000	0.399496
	9.835000	0.300835
	9.840000	0.307412
	9.845000	0.412651
	9.850000	0.399496
	9.855000	0.294257
	9.860000	0.310701
	9.865000	0.415940
	9.870000	0.396208
	9.875000	0.297546
	9.880000	0.313990
	9.885000	0.412651
	9.890000	0.396208
	9.895000	0.297546
	9.900000	0.313990
	9.905000	0.415940
	9.910000	0.396208
	9.915000	0.294257
	9.920000	0.310701
	9.925000	0.412651
	9.930000	0.396208
	9.935000	0.297546
	9.940000	0.313990
	9.945000	0.415940
	9.950000	0.396208
	9.955000	0.294257
	9.960000	0.313990
	9.965000	0.415940
	9.970000	0.396208
	9.975000	0.294257
	9.980000	0.310701
	9.985000	0.415940
	9.990000	0.396208
	9.995000	0.294257
	10.000000	0.320567
	10.005000	0.412651
	10.010000	0.399496
	10.015000	0.294257
	10.020000	0.317278
	10.025000	0.415940
	10.030000	0.392919
	10.035000	0.294257
	10.040000	0.313990
	10.045000	0.412651
	10.050000	0.392919
	10.055000	0.290969
	10.060000	0.313990
	10.065000	0.412651
	10.070000	0.396208
	10.075000	0.294257
	10.080000	0.310701
	10.085000	0.415940
	10.090000	0.399496
	10.095000	0.294257
	10.100000	0.313990
	10.105000	0.419229
	10.110000	0.392919
	10.115000	0.294257
	10.120000	0.317278
	10.125000	0.415940
	10.130000	0.396208
	10.135000	0.294257
	10.140000	0.313990
	10.145000	0.419229
	10.150000	0.392919
	10.155000	0.290969
	10.160000	0.317278
	10.165000	0.412651
	10.170000	0.392919
	10.175000	0.294257
	10.180000	0.320567
	10.185000	0.415940
	10.190000	0.392919
	10.195000	0.290969
	10.200000	0.313990
	10.205000	0.412651
	10.210000	0.396208
	10.215000	0.287680
	10.220000	0.317278
	10.225000	0.415940
	10.230000	0.392919
	10.235000	0.287680
	10.240000	0.317278
	10.245000	0.415940
	10.250000	0.392919
	10.255000	0.287680
	10.260000	0.317278
	10.265000	0.415940
	10.270000	0.396208
	10.275000	0.290969
	10.280000	0.317278
	10.285000	0.415940
	10.290000	0.389630
	10.295000	0.287680
	10.300000	0.313990
	10.305000	0.419229
	10.310000	0.389630
	10.315000	0.284391
	10.320000	0.317278
	10.325000	0.415940
	10.330000	0.392919
	10.335000	0.294257
	10.340000	0.317278
	10.345000	0.415940
	10.350000	0.389630
	10.355000	0.287680
	10.360000	0.313990
	10.365000	0.419229
	10.370000	0.389630
	10.375000	0.290969
	10.380000	0.317278
	10.385000	0.415940
	10.390000	0.392919
	10.395000	0.290969
	10.400000	0.317278
	10.405000	0.415940
	10.410000	0.392919
	10.415000	0.294257
	10.420000	0.317278
	10.425000	0.415940
	10.430000	0.389630
	10.435000	0.294257
	10.440000	0.313990
	10.445000	0.415940
	10.450000	0.386342
	10.455000	0.294257
	10.460000	0.320567
	10.465000	0.415940
	10.470000	0.389630
	10.475000	0.284391
	10.480000	0.317278
	10.485000	0.412651
	10.490000	0.392919
	10.495000	0.284391
	10.500000	0.320567
	10.505000	0.412651
	10.510000	0.389630
	10.515000	0.287680
	10.520000	0.317278
	10.525000	0.419229
	10.530000	0.389630
	10.535000	0.287680
	10.540000	0.320567
	10.545000	0.415940
	10.550000	0.383053
	10.555000	0.284391
	10.560000	0.317278
	10.565000	0.415940
	10.570000	0.389630
	10.575000	0.287680
	10.580000	0.317278
	10.585000	0.415940
	10.590000	0.383053
	10.595000	0.287680
	10.600000	0.317278
	10.605000	0.415940
	10.610000	0.386342
	10.615000	0.284391
	10.620000	0.313990
	10.625000	0.415940
	10.630000	0.383053
	10.635000	0.287680
	10.640000	0.313990
	10.645000	0.415940
	10.650000	0.379764
	10.655000	0.284391
	10.660000	0.317278
	10.665000	0.412651
	10.670000	0.386342
	10.675000	0.281102
	10.680000	0.317278
	10.685000	0.412651
	10.690000	0.379764
	10.695000	0.281102
	10.700000	0.317278
	10.705000	0.415940
	10.710000	0.383053
	10.715000	0.281102
	10.720000	0.320567
	10.725000	0.415940
	10.730000	0.383053
	10.735000	0.284391
	10.740000	0.320567
	10.745000	0.415940
	10.750000	0.383053
	10.755000	0.281102
	10.760000	0.320567
	10.765000	0.415940
	10.770000	0.379764
	10.775000	0.284391
	10.780000	0.320567
	10.785000	0.412651
	10.790000	0.379764
	10.795000	0.281102
	10.800000	0.317278
	10.805000	0.412651
	10.810000	0.379764
	10.815000	0.284391
	10.820000	0.320567
	10.825000	0.415940
	10.830000	0.383053
	10.835000	0.281102
	10.840000	0.320567
	10.845000	0.422518
	10.850000	0.383053
	10.855000	0.284391
	10.860000	0.320567
	10.865000	0.415940
	10.870000	0.379764
	10.875000	0.281102
	10.880000	0.320567
	10.885000	0.422518
	10.890000	0.379764
	10.895000	0.284391
	10.900000	0.317278
	10.905000	0.412651
	10.910000	0.379764
	10.915000	0.284391
	10.920000	0.320567
	10.925000	0.415940
	10.930000	0.379764
	10.935000	0.281102
	10.940000	0.323856
	10.945000	0.415940
	10.950000	0.379764
	10.955000	0.281102
	10.960000	0.320567
	10.965000	0.415940
	10.970000	0.379764
	10.975000	0.281102
	10.980000	0.323856
	10.985000	0.412651
	10.990000	0.376475
	10.995000	0.281102
	11.000000	0.323856
	11.005000	0.419229
	11.010000	0.373187
	11.015000	0.281102
	11.020000	0.323856
	11.025000	0.415940
	11.030000	0.376475
	11.035000	0.281102
	11.040000	0.320567
	11.045000	0.419229
	11.050000	0.373187
	11.055000	0.277814
	11.060000	0.320567
	11.065000	0.412651
	11.070000	0.373187
	11.075000	0.277814
	11.080000	0.323856
	11.085000	0.415940
	11.090000	0.376475
	11.095000	0.281102
	11.100000	0.320567
	11.105000	0.412651
	11.110000	0.373187
	11.115000	0.277814
	11.120000	0.320567
	11.125000	0.419229
	11.130000	0.373187
	11.135000	0.281102
	11.140000	0.320567
	11.145000	0.412651
	11.150000	0.376475
	11.155000	0.274525
	11.160000	0.323856
	11.165000	0.419229
	11.170000	0.376475
	11.175000	0.277814
	11.180000	0.323856
	11.185000	0.419229
	11.190000	0.373187
	11.195000	0.281102
	11.200000	0.323856
	11.205000	0.412651
	11.210000	0.376475
	11.215000	0.284391
	11.220000	0.323856
	11.225000	0.415940
	11.230000	0.373187
	11.235000	0.281102
	11.240000	0.320567
	11.245000	0.419229
	11.250000	0.369898
	11.255000	0.274525
	11.260000	0.323856
	11.265000	0.412651
	11.270000	0.373187
	11.275000	0.274525
	11.280000	0.317278
	11.285000	0.409363
	11.290000	0.363321
	11.295000	0.277814
	11.300000	0.317278
	11.305000	0.412651
	11.310000	0.369898
	11.315000	0.274525
	11.320000	0.320567
	11.325000	0.409363
	11.330000	0.369898
	11.335000	0.274525
	11.340000	0.320567
	11.345000	0.409363
	11.350000	0.366609
	11.355000	0.274525
	11.360000	0.317278
	11.365000	0.412651
	11.370000	0.366609
	11.375000	0.274525
	11.380000	0.317278
	11.385000	0.412651
	11.390000	0.363321
	11.395000	0.277814
	11.400000	0.323856
	11.405000	0.409363
	11.410000	0.366609
	11.415000	0.267948
	11.420000	0.313990
	11.425000	0.406074
	11.430000	0.360032
	11.435000	0.264659
	11.440000	0.313990
	11.445000	0.402785
	11.450000	0.353454
	11.455000	0.264659
	11.460000	0.317278
	11.465000	0.406074
	11.470000	0.360032
	11.475000	0.267948
	11.480000	0.320567
	11.485000	0.412651
	11.490000	0.363321
	11.495000	0.274525
	11.500000	0.320567
	11.505000	0.406074
	11.510000	0.356743
	11.515000	0.267948
	11.520000	0.313990
	11.525000	0.406074
	11.530000	0.353454
	11.535000	0.264659
	11.540000	0.313990
	11.545000	0.402785
	11.550000	0.350166
	11.555000	0.261370
	11.560000	0.310701
	11.565000	0.399496
	11.570000	0.346877
	11.575000	0.258081
	11.580000	0.307412
	11.585000	0.399496
	11.590000	0.353454
	11.595000	0.254793
	11.600000	0.304124
	11.605000	0.402785
	11.610000	0.350166
	11.615000	0.248215
	11.620000	0.307412
	11.625000	0.399496
	11.630000	0.350166
	11.635000	0.251504
	11.640000	0.307412
	11.645000	0.399496
	11.650000	0.346877
	11.655000	0.261370
	11.660000	0.310701
	11.665000	0.399496
	11.670000	0.353454
	11.675000	0.261370
	11.680000	0.317278
	11.685000	0.406074
	11.690000	0.353454
	11.695000	0.261370
	11.700000	0.317278
	11.705000	0.409363
	11.710000	0.360032
	11.715000	0.264659
	11.720000	0.320567
	11.725000	0.412651
	11.730000	0.356743
	11.735000	0.267948
	11.740000	0.327145
	11.745000	0.412651
	11.750000	0.360032
	11.755000	0.274525
	11.760000	0.327145
	11.765000	0.422518
	11.770000	0.360032
	11.775000	0.274525
	11.780000	0.333722
	11.785000	0.419229
	11.790000	0.373187
	11.795000	0.281102
	11.800000	0.337011
	11.805000	0.432384
	11.810000	0.376475
	11.815000	0.287680
	11.820000	0.346877
	11.825000	0.435672
	11.830000	0.383053
	11.835000	0.297546
	11.840000	0.350166
	11.845000	0.438961
	11.850000	0.386342
	11.855000	0.294257
	11.860000	0.350166
	11.865000	0.438961
	11.870000	0.376475
	11.875000	0.290969
	11.880000	0.346877
	11.885000	0.429095
	11.890000	0.376475
	11.895000	0.287680
	11.900000	0.346877
	11.905000	0.432384
	11.910000	0.379764
	11.915000	0.287680
	11.920000	0.343588
	11.925000	0.432384
	11.930000	0.379764
	11.935000	0.284391
	11.940000	0.346877
	11.945000	0.429095
	11.950000	0.373187
	11.955000	0.287680
	11.960000	0.343588
	11.965000	0.432384
	11.970000	0.373187
	11.975000	0.287680
	11.980000	0.346877
	11.985000	0.432384
	11.990000	0.369898
	11.995000	0.287680
	12.000000	0.346877
	12.005000	0.432384
	12.010000	0.373187
	12.015000	0.287680
	12.020000	0.350166
	12.025000	0.432384
	12.030000	0.376475
	12.035000	0.284391
	12.040000	0.346877
	12.045000	0.432384
	12.050000	0.376475
	12.055000	0.287680
	12.060000	0.346877
	12.065000	0.432384
	12.070000	0.369898
	12.075000	0.284391
	12.080000	0.343588
	12.085000	0.425806
	12.090000	0.369898
	12.095000	0.287680
	12.100000	0.346877
	12.105000	0.429095
	12.110000	0.366609
	12.115000	0.287680
	12.120000	0.346877
	12.125000	0.429095
	12.130000	0.369898
	12.135000	0.284391
	12.140000	0.343588
	12.145000	0.425806
	12.150000	0.366609
	12.155000	0.284391
	12.160000	0.346877
	12.165000	0.425806
	12.170000	0.369898
	12.175000	0.284391
	12.180000	0.343588
	12.185000	0.425806
	12.190000	0.369898
	12.195000	0.284391
	12.200000	0.343588
	12.205000	0.432384
	12.210000	0.366609
	12.215000	0.284391
	12.220000	0.343588
	12.225000	0.425806
	12.230000	0.366609
	12.235000	0.284391
	12.240000	0.350166
	12.245000	0.425806
	12.250000	0.363321
	12.255000	0.284391
	12.260000	0.343588
	12.265000	0.425806
	12.270000	0.363321
	12.275000	0.284391
	12.280000	0.343588
	12.285000	0.429095
	12.290000	0.363321
	12.295000	0.284391
	12.300000	0.346877
	12.305000	0.425806
	12.310000	0.363321
	12.315000	0.281102
	12.320000	0.343588
	12.325000	0.425806
	12.330000	0.363321
	12.335000	0.281102
	12.340000	0.346877
	12.345000	0.425806
	12.350000	0.366609
	12.355000	0.281102
	12.360000	0.343588
	12.365000	0.425806
	12.370000	0.363321
	12.375000	0.281102
	12.380000	0.343588
	12.385000	0.429095
	12.390000	0.360032
	12.395000	0.274525
	12.400000	0.346877
	12.405000	0.425806
	12.410000	0.360032
	12.415000	0.281102
	12.420000	0.343588
	12.425000	0.422518
	12.430000	0.360032
	12.435000	0.281102
	12.440000	0.346877
	12.445000	0.425806
	12.450000	0.356743
	12.455000	0.277814
	12.460000	0.343588
	12.465000	0.422518
	12.470000	0.360032
	12.475000	0.277814
	12.480000	0.346877
	12.485000	0.422518
	12.490000	0.356743
	12.495000	0.281102
	12.500000	0.343588
	12.505000	0.422518
	12.510000	0.360032
	12.515000	0.281102
	12.520000	0.350166
	12.525000	0.422518
	12.530000	0.356743
	12.535000	0.284391
	12.540000	0.350166
	12.545000	0.425806
	12.550000	0.353454
	12.555000	0.284391
	12.560000	0.346877
	12.565000	0.419229
	12.570000	0.360032
	12.575000	0.277814
	12.580000	0.343588
	12.585000	0.425806
	12.590000	0.356743
	12.595000	0.277814
	12.600000	0.346877
	12.605000	0.419229
	12.610000	0.353454
	12.615000	0.277814
	12.620000	0.346877
	12.625000	0.422518
	12.630000	0.350166
	12.635000	0.277814
	12.640000	0.346877
	12.645000	0.422518
	12.650000	0.356743
	12.655000	0.281102
	12.660000	0.346877
	12.665000	0.422518
	12.670000	0.353454
	12.675000	0.281102
	12.680000	0.340299
	12.685000	0.419229
	12.690000	0.353454
	12.695000	0.274525
	12.700000	0.346877
	12.705000	0.422518
	12.710000	0.353454
	12.715000	0.274525
	12.720000	0.346877
	12.725000	0.419229
	12.730000	0.350166
	12.735000	0.274525
	12.740000	0.343588
	12.745000	0.419229
	12.750000	0.350166
	12.755000	0.277814
	12.760000	0.346877
	12.765000	0.419229
	12.770000	0.350166
	12.775000	0.274525
	12.780000	0.343588
	12.785000	0.419229
	12.790000	0.353454
	12.795000	0.274525
	12.800000	0.346877
	12.805000	0.419229
	12.810000	0.343588
	12.815000	0.277814
	12.820000	0.346877
	12.825000	0.415940
	12.830000	0.353454
	12.835000	0.281102
	12.840000	0.350166
	12.845000	0.422518
	12.850000	0.353454
	12.855000	0.277814
	12.860000	0.346877
	12.865000	0.422518
	12.870000	0.346877
	12.875000	0.274525
	12.880000	0.350166
	12.885000	0.415940
	12.890000	0.346877
	12.895000	0.274525
	12.900000	0.346877
	12.905000	0.422518
	12.910000	0.346877
	12.915000	0.274525
	12.920000	0.343588
	12.925000	0.422518
	12.930000	0.346877
	12.935000	0.274525
	12.940000	0.343588
	12.945000	0.419229
	12.950000	0.346877
	12.955000	0.274525
	12.960000	0.346877
	12.965000	0.415940
	12.970000	0.350166
	12.975000	0.271236
	12.980000	0.350166
	12.985000	0.419229
	12.990000	0.343588
	12.995000	0.267948
	13.000000	0.346877
	13.005000	0.422518
	13.010000	0.346877
	13.015000	0.271236
	13.020000	0.343588
	13.025000	0.419229
	13.030000	0.343588
	13.035000	0.267948
	13.040000	0.346877
	13.045000	0.419229
	13.050000	0.340299
	13.055000	0.271236
	13.060000	0.346877
	13.065000	0.412651
	13.070000	0.340299
	13.075000	0.271236
	13.080000	0.346877
	13.085000	0.415940
	13.090000	0.343588
	13.095000	0.271236
	13.100000	0.346877
	13.105000	0.415940
	13.110000	0.340299
	13.115000	0.271236
	13.120000	0.346877
	13.125000	0.419229
	13.130000	0.340299
	13.135000	0.267948
	13.140000	0.346877
	13.145000	0.412651
	13.150000	0.340299
	13.155000	0.271236
	13.160000	0.343588
	13.165000	0.415940
	13.170000	0.337011
	13.175000	0.271236
	13.180000	0.343588
	13.185000	0.415940
	13.190000	0.330433
	13.195000	0.267948
	13.200000	0.346877
	13.205000	0.412651
	13.210000	0.333722
	13.215000	0.267948
	13.220000	0.343588
	13.225000	0.415940
	13.230000	0.337011
	13.235000	0.267948
	13.240000	0.343588
	13.245000	0.409363
	13.250000	0.333722
	13.255000	0.271236
	13.260000	0.343588
	13.265000	0.409363
	13.270000	0.333722
	13.275000	0.267948
	13.280000	0.346877
	13.285000	0.409363
	13.290000	0.337011
	13.295000	0.264659
	13.300000	0.343588
	13.305000	0.412651
	13.310000	0.330433
	13.315000	0.267948
	13.320000	0.343588
	13.325000	0.409363
	13.330000	0.330433
	13.335000	0.267948
	13.340000	0.343588
	13.345000	0.409363
	13.350000	0.330433
	13.355000	0.267948
	13.360000	0.346877
	13.365000	0.409363
	13.370000	0.330433
	13.375000	0.264659
	13.380000	0.343588
	13.385000	0.409363
	13.390000	0.330433
	13.395000	0.264659
	13.400000	0.343588
	13.405000	0.406074
	13.410000	0.330433
	13.415000	0.261370
	13.420000	0.343588
	13.425000	0.409363
	13.430000	0.330433
	13.435000	0.264659
	13.440000	0.343588
	13.445000	0.409363
	13.450000	0.327145
	13.455000	0.261370
	13.460000	0.346877
	13.465000	0.409363
	13.470000	0.330433
	13.475000	0.264659
	13.480000	0.343588
	13.485000	0.409363
	13.490000	0.330433
	13.495000	0.264659
	13.500000	0.346877
	13.505000	0.409363
	13.510000	0.330433
	13.515000	0.261370
	13.520000	0.343588
	13.525000	0.412651
	13.530000	0.327145
	13.535000	0.267948
	13.540000	0.346877
	13.545000	0.409363
	13.550000	0.323856
	13.555000	0.264659
	13.560000	0.343588
	13.565000	0.412651
	13.570000	0.323856
	13.575000	0.264659
	13.580000	0.346877
	13.585000	0.409363
	13.590000	0.327145
	13.595000	0.258081
	13.600000	0.346877
	13.605000	0.409363
	13.610000	0.320567
	13.615000	0.264659
	13.620000	0.343588
	13.625000	0.402785
	13.630000	0.320567
	13.635000	0.261370
	13.640000	0.340299
	13.645000	0.406074
	13.650000	0.320567
	13.655000	0.261370
	13.660000	0.340299
	13.665000	0.402785
	13.670000	0.327145
	13.675000	0.258081
	13.680000	0.343588
	13.685000	0.402785
	13.690000	0.317278
	13.695000	0.261370
	13.700000	0.346877
	13.705000	0.402785
	13.710000	0.323856
	13.715000	0.261370
	13.720000	0.343588
	13.725000	0.406074
	13.730000	0.320567
	13.735000	0.258081
	13.740000	0.346877
	13.745000	0.402785
	13.750000	0.313990
	13.755000	0.258081
	13.760000	0.343588
	13.765000	0.406074
	13.770000	0.317278
	13.775000	0.261370
	13.780000	0.340299
	13.785000	0.406074
	13.790000	0.317278
	13.795000	0.258081
	13.800000	0.343588
	13.805000	0.402785
	13.810000	0.313990
	13.815000	0.258081
	13.820000	0.346877
	13.825000	0.406074
	13.830000	0.317278
	13.835000	0.258081
	13.840000	0.343588
	13.845000	0.399496
	13.850000	0.313990
	13.855000	0.251504
	13.860000	0.340299
	13.865000	0.396208
	13.870000	0.307412
	13.875000	0.251504
	13.880000	0.337011
	13.885000	0.396208
	13.890000	0.307412
	13.895000	0.251504
	13.900000	0.340299
	13.905000	0.396208
	13.910000	0.310701
	13.915000	0.248215
	13.920000	0.340299
	13.925000	0.392919
	13.930000	0.310701
	13.935000	0.251504
	13.940000	0.340299
	13.945000	0.396208
	13.950000	0.304124
	13.955000	0.251504
	13.960000	0.333722
	13.965000	0.392919
	13.970000	0.304124
	13.975000	0.251504
	13.980000	0.333722
	13.985000	0.392919
	13.990000	0.304124
	13.995000	0.248215
	14.000000	0.340299
	14.005000	0.392919
	14.010000	0.300835
	14.015000	0.248215
	14.020000	0.337011
	14.025000	0.392919
	14.030000	0.304124
	14.035000	0.248215
	14.040000	0.333722
	14.045000	0.386342
	14.050000	0.297546
	14.055000	0.248215
	14.060000	0.330433
	14.065000	0.386342
	14.070000	0.300835
	14.075000	0.241638
	14.080000	0.333722
	14.085000	0.386342
	14.090000	0.300835
	14.095000	0.244927
	14.100000	0.333722
	14.105000	0.389630
	14.110000	0.300835
	14.115000	0.244927
	14.120000	0.330433
	14.125000	0.383053
	14.130000	0.294257
	14.135000	0.244927
	14.140000	0.333722
	14.145000	0.386342
	14.150000	0.294257
	14.155000	0.244927
	14.160000	0.337011
	14.165000	0.386342
	14.170000	0.294257
	14.175000	0.244927
	14.180000	0.333722
	14.185000	0.383053
	14.190000	0.294257
	14.195000	0.244927
	14.200000	0.333722
	14.205000	0.389630
	14.210000	0.294257
	14.215000	0.244927
	14.220000	0.337011
	14.225000	0.383053
	14.230000	0.290969
	14.235000	0.248215
	14.240000	0.333722
	14.245000	0.386342
	14.250000	0.290969
	14.255000	0.241638
	14.260000	0.330433
	14.265000	0.379764
	14.270000	0.290969
	14.275000	0.244927
	14.280000	0.327145
	14.285000	0.379764
	14.290000	0.294257
	14.295000	0.235060
	14.300000	0.327145
	14.305000	0.379764
	14.310000	0.287680
	14.315000	0.241638
	14.320000	0.330433
	14.325000	0.376475
	14.330000	0.284391
	14.335000	0.238349
	14.340000	0.327145
	14.345000	0.376475
	14.350000	0.290969
	14.355000	0.238349
	14.360000	0.327145
	14.365000	0.376475
	14.370000	0.284391
	14.375000	0.238349
	14.380000	0.330433
	14.385000	0.376475
	14.390000	0.287680
	14.395000	0.241638
	14.400000	0.327145
	14.405000	0.379764
	14.410000	0.287680
	14.415000	0.238349
	14.420000	0.333722
	14.425000	0.379764
	14.430000	0.287680
	14.435000	0.238349
	14.440000	0.330433
	14.445000	0.376475
	14.450000	0.287680
	14.455000	0.235060
	14.460000	0.330433
	14.465000	0.376475
	14.470000	0.281102
	14.475000	0.241638
	14.480000	0.330433
	14.485000	0.379764
	14.490000	0.281102
	14.495000	0.238349
	14.500000	0.333722
	14.505000	0.379764
	14.510000	0.284391
	14.515000	0.241638
	14.520000	0.330433
	14.525000	0.379764
	14.530000	0.284391
	14.535000	0.241638
	14.540000	0.333722
	14.545000	0.379764
	14.550000	0.284391
	14.555000	0.238349
	14.560000	0.337011
	14.565000	0.383053
	14.570000	0.287680
	14.575000	0.241638
	14.580000	0.330433
	14.585000	0.379764
	14.590000	0.284391
	14.595000	0.241638
	14.600000	0.333722
	14.605000	0.379764
	14.610000	0.284391
	14.615000	0.244927
	14.620000	0.333722
	14.625000	0.379764
	14.630000	0.287680
	14.635000	0.244927
	14.640000	0.340299
	14.645000	0.379764
	14.650000	0.287680
	14.655000	0.244927
	14.660000	0.340299
	14.665000	0.383053
	14.670000	0.287680
	14.675000	0.244927
	14.680000	0.337011
	14.685000	0.379764
	14.690000	0.287680
	14.695000	0.244927
	14.700000	0.333722
	14.705000	0.383053
	14.710000	0.287680
	14.715000	0.244927
	14.720000	0.340299
	14.725000	0.383053
	14.730000	0.284391
	14.735000	0.248215
	14.740000	0.340299
	14.745000	0.379764
	14.750000	0.287680
	14.755000	0.248215
	14.760000	0.340299
	14.765000	0.383053
	14.770000	0.287680
	14.775000	0.244927
	14.780000	0.340299
	14.785000	0.383053
	14.790000	0.284391
	14.795000	0.244927
	14.800000	0.340299
	14.805000	0.383053
	14.810000	0.290969
	14.815000	0.248215
	14.820000	0.343588
	14.825000	0.379764
	14.830000	0.287680
	14.835000	0.241638
	14.840000	0.340299
	14.845000	0.376475
	14.850000	0.284391
	14.855000	0.248215
	14.860000	0.340299
	14.865000	0.383053
	14.870000	0.284391
	14.875000	0.248215
	14.880000	0.343588
	14.885000	0.379764
	14.890000	0.281102
	14.895000	0.244927
	14.900000	0.337011
	14.905000	0.379764
	14.910000	0.287680
	14.915000	0.241638
	14.920000	0.337011
	14.925000	0.376475
	14.930000	0.277814
	14.935000	0.241638
	14.940000	0.343588
	14.945000	0.376475
	14.950000	0.281102
	14.955000	0.241638
	14.960000	0.343588
	14.965000	0.376475
	14.970000	0.277814
	14.975000	0.238349
	14.980000	0.340299
	14.985000	0.376475
	14.990000	0.274525
	14.995000	0.241638
	15.000000	0.337011
	15.005000	0.373187
	15.010000	0.274525
	15.015000	0.238349
	15.020000	0.333722
	15.025000	0.369898
	15.030000	0.271236
	15.035000	0.235060
	15.040000	0.333722
	15.045000	0.360032
	15.050000	0.267948
	15.055000	0.231772
	15.060000	0.327145
	15.065000	0.360032
	15.070000	0.261370
	15.075000	0.228483
	15.080000	0.327145
	15.085000	0.363321
	15.090000	0.261370
	15.095000	0.228483
	15.100000	0.323856
	15.105000	0.353454
	15.110000	0.254793
	15.115000	0.221905
	15.120000	0.327145
	15.125000	0.356743
	15.130000	0.254793
	15.135000	0.215328
	15.140000	0.317278
	15.145000	0.353454
	15.150000	0.251504
	15.155000	0.215328
	15.160000	0.320567
	15.165000	0.353454
	15.170000	0.251504
	15.175000	0.215328
	15.180000	0.320567
	15.185000	0.353454
	15.190000	0.254793
	15.195000	0.218617
	15.200000	0.323856
	15.205000	0.350166
	15.210000	0.254793
	15.215000	0.225194
	15.220000	0.320567
	15.225000	0.356743
	15.230000	0.258081
	15.235000	0.228483
	15.240000	0.327145
	15.245000	0.356743
	15.250000	0.258081
	15.255000	0.231772
	15.260000	0.330433
	15.265000	0.366609
	15.270000	0.264659
	15.275000	0.238349
	15.280000	0.340299
	15.285000	0.369898
	15.290000	0.274525
	15.295000	0.244927
	15.300000	0.350166
	15.305000	0.383053
	15.310000	0.284391
	15.315000	0.254793
	15.320000	0.363321
	15.325000	0.392919
	15.330000	0.287680
	15.335000	0.264659
	15.340000	0.360032
	15.345000	0.392919
	15.350000	0.290969
	15.355000	0.267948
	15.360000	0.360032
	15.365000	0.389630
	15.370000	0.294257
	15.375000	0.264659
	15.380000	0.360032
	15.385000	0.389630
	15.390000	0.290969
	15.395000	0.264659
	15.400000	0.360032
	15.405000	0.392919
	15.410000	0.287680
	15.415000	0.261370
	15.420000	0.363321
	15.425000	0.396208
	15.430000	0.290969
	15.435000	0.261370
	15.440000	0.363321
	15.445000	0.392919
	15.450000	0.290969
	15.455000	0.261370
	15.460000	0.366609
	15.465000	0.392919
	15.470000	0.290969
	15.475000	0.264659
	15.480000	0.363321
	15.485000	0.386342
	15.490000	0.294257
	15.495000	0.264659
	15.500000	0.363321
	15.505000	0.392919
	15.510000	0.290969
	15.515000	0.267948
	15.520000	0.363321
	15.525000	0.386342
	15.530000	0.287680
	15.535000	0.261370
	15.540000	0.363321
	15.545000	0.389630
	15.550000	0.287680
	15.555000	0.261370
	15.560000	0.363321
	15.565000	0.386342
	15.570000	0.287680
	15.575000	0.264659
	15.580000	0.363321
	15.585000	0.389630
	15.590000	0.284391
	15.595000	0.261370
	15.600000	0.369898
	15.605000	0.392919
	15.610000	0.284391
	15.615000	0.258081
	15.620000	0.366609
	15.625000	0.389630
	15.630000	0.287680
	15.635000	0.264659
	15.640000	0.366609
	15.645000	0.386342
	15.650000	0.287680
	15.655000	0.264659
	15.660000	0.366609
	15.665000	0.389630
	15.670000	0.290969
	15.675000	0.264659
	15.680000	0.363321
	15.685000	0.389630
	15.690000	0.287680
	15.695000	0.267948
	15.700000	0.366609
	15.705000	0.392919
	15.710000	0.290969
	15.715000	0.271236
	15.720000	0.369898
	15.725000	0.392919
	15.730000	0.294257
	15.735000	0.271236
	15.740000	0.369898
	15.745000	0.392919
	15.750000	0.294257
	15.755000	0.274525
	15.760000	0.373187
	15.765000	0.389630
	15.770000	0.294257
	15.775000	0.274525
	15.780000	0.373187
	15.785000	0.392919
	15.790000	0.297546
	15.795000	0.267948
	15.800000	0.376475
	15.805000	0.392919
	15.810000	0.290969
	15.815000	0.274525
	15.820000	0.373187
	15.825000	0.392919
	15.830000	0.290969
	15.835000	0.274525
	15.840000	0.369898
	15.845000	0.392919
	15.850000	0.294257
	15.855000	0.274525
	15.860000	0.373187
	15.865000	0.392919
	15.870000	0.287680
	15.875000	0.267948
	15.880000	0.369898
	15.885000	0.392919
	15.890000	0.287680
	15.895000	0.271236
	15.900000	0.369898
	15.905000	0.386342
	15.910000	0.287680
	15.915000	0.267948
	15.920000	0.373187
	15.925000	0.389630
	15.930000	0.281102
	15.935000	0.267948
	15.940000	0.369898
	15.945000	0.392919
	15.950000	0.284391
	15.955000	0.271236
	15.960000	0.366609
	15.965000	0.383053
	15.970000	0.281102
	15.975000	0.267948
	15.980000	0.369898
	15.985000	0.389630
	15.990000	0.284391
	15.995000	0.264659
	16.000000	0.369898
	16.005000	0.386342
	16.010000	0.281102
	16.015000	0.264659
	16.020000	0.366609
	16.025000	0.389630
	16.030000	0.281102
	16.035000	0.267948
	16.040000	0.369898
	16.045000	0.383053
	16.050000	0.281102
	16.055000	0.271236
	16.060000	0.373187
	16.065000	0.383053
	16.070000	0.281102
	16.075000	0.271236
	16.080000	0.369898
	16.085000	0.383053
	16.090000	0.281102
	16.095000	0.267948
	16.100000	0.366609
	16.105000	0.383053
	16.110000	0.277814
	16.115000	0.267948
	16.120000	0.373187
	16.125000	0.386342
	16.130000	0.281102
	16.135000	0.264659
	16.140000	0.369898
	16.145000	0.383053
	16.150000	0.277814
	16.155000	0.267948
	16.160000	0.373187
	16.165000	0.379764
	16.170000	0.277814
	16.175000	0.267948
	16.180000	0.366609
	16.185000	0.379764
	16.190000	0.274525
	16.195000	0.264659
	16.200000	0.366609
	16.205000	0.379764
	16.210000	0.277814
	16.215000	0.261370
	16.220000	0.369898
	16.225000	0.376475
	16.230000	0.274525
	16.235000	0.264659
	16.240000	0.373187
	16.245000	0.376475
	16.250000	0.274525
	16.255000	0.267948
	16.260000	0.369898
	16.265000	0.379764
	16.270000	0.274525
	16.275000	0.267948
	16.280000	0.366609
	16.285000	0.376475
	16.290000	0.271236
	16.295000	0.264659
	16.300000	0.363321
	16.305000	0.376475
	16.310000	0.267948
	16.315000	0.261370
	16.320000	0.366609
	16.325000	0.376475
	16.330000	0.274525
	16.335000	0.264659
	16.340000	0.369898
	16.345000	0.379764
	16.350000	0.274525
	16.355000	0.261370
	16.360000	0.369898
	16.365000	0.376475
	16.370000	0.277814
	16.375000	0.267948
	16.380000	0.366609
	16.385000	0.376475
	16.390000	0.274525
	16.395000	0.264659
	16.400000	0.366609
	16.405000	0.379764
	16.410000	0.274525
	16.415000	0.264659
	16.420000	0.366609
	16.425000	0.373187
	16.430000	0.274525
	16.435000	0.264659
	16.440000	0.363321
	16.445000	0.373187
	16.450000	0.271236
	16.455000	0.264659
	16.460000	0.366609
	16.465000	0.373187
	16.470000	0.271236
	16.475000	0.261370
	16.480000	0.369898
	16.485000	0.373187
	16.490000	0.267948
	16.495000	0.267948
	16.500000	0.366609
	16.505000	0.373187
	16.510000	0.264659
	16.515000	0.264659
	16.520000	0.366609
	16.525000	0.369898
	16.530000	0.264659
	16.535000	0.267948
	16.540000	0.366609
	16.545000	0.373187
	16.550000	0.264659
	16.555000	0.264659
	16.560000	0.369898
	16.565000	0.373187
	16.570000	0.261370
	16.575000	0.264659
	16.580000	0.366609
	16.585000	0.369898
	16.590000	0.267948
	16.595000	0.267948
	16.600000	0.366609
	16.605000	0.369898
	16.610000	0.267948
	16.615000	0.264659
	16.620000	0.369898
	16.625000	0.369898
	16.630000	0.264659
	16.635000	0.264659
	16.640000	0.366609
	16.645000	0.373187
	16.650000	0.267948
	16.655000	0.264659
	16.660000	0.366609
	16.665000	0.366609
	16.670000	0.264659
	16.675000	0.264659
	16.680000	0.366609
	16.685000	0.369898
	16.690000	0.261370
	16.695000	0.264659
	16.700000	0.366609
	16.705000	0.369898
	16.710000	0.264659
	16.715000	0.264659
	16.720000	0.366609
	16.725000	0.369898
	16.730000	0.261370
	16.735000	0.264659
	16.740000	0.369898
	16.745000	0.366609
	16.750000	0.261370
	16.755000	0.264659
	16.760000	0.366609
	16.765000	0.366609
	16.770000	0.261370
	16.775000	0.264659
	16.780000	0.366609
	16.785000	0.366609
	16.790000	0.258081
	16.795000	0.264659
	16.800000	0.366609
	16.805000	0.363321
	16.810000	0.258081
	16.815000	0.261370
	16.820000	0.363321
	16.825000	0.366609
	16.830000	0.261370
	16.835000	0.264659
	16.840000	0.363321
	16.845000	0.366609
	16.850000	0.261370
	16.855000	0.261370
	16.860000	0.366609
	16.865000	0.363321
	16.870000	0.258081
	16.875000	0.258081
	16.880000	0.363321
	16.885000	0.363321
	16.890000	0.258081
	16.895000	0.261370
	16.900000	0.363321
	16.905000	0.360032
	16.910000	0.254793
	16.915000	0.254793
	16.920000	0.366609
	16.925000	0.363321
	16.930000	0.254793
	16.935000	0.261370
	16.940000	0.366609
	16.945000	0.360032
	16.950000	0.254793
	16.955000	0.264659
	16.960000	0.366609
	16.965000	0.356743
	16.970000	0.254793
	16.975000	0.261370
	16.980000	0.366609
	16.985000	0.360032
	16.990000	0.254793
	16.995000	0.261370
	17.000000	0.366609
	17.005000	0.353454
	17.010000	0.251504
	17.015000	0.258081
	17.020000	0.369898
	17.025000	0.360032
	17.030000	0.251504
	17.035000	0.261370
	17.040000	0.366609
	17.045000	0.356743
	17.050000	0.251504
	17.055000	0.261370
	17.060000	0.360032
	17.065000	0.356743
	17.070000	0.251504
	17.075000	0.258081
	17.080000	0.363321
	17.085000	0.353454
	17.090000	0.248215
	17.095000	0.261370
	17.100000	0.360032
	17.105000	0.350166
	17.110000	0.251504
	17.115000	0.258081
	17.120000	0.366609
	17.125000	0.353454
	17.130000	0.251504
	17.135000	0.261370
	17.140000	0.366609
	17.145000	0.353454
	17.150000	0.251504
	17.155000	0.264659
	17.160000	0.363321
	17.165000	0.353454
	17.170000	0.254793
	17.175000	0.258081
	17.180000	0.366609
	17.185000	0.356743
	17.190000	0.251504
	17.195000	0.261370
	17.200000	0.363321
	17.205000	0.353454
	17.210000	0.251504
	17.215000	0.258081
	17.220000	0.363321
	17.225000	0.353454
	17.230000	0.248215
	17.235000	0.258081
	17.240000	0.356743
	17.245000	0.353454
	17.250000	0.244927
	17.255000	0.261370
	17.260000	0.363321
	17.265000	0.350166
	17.270000	0.244927
	17.275000	0.254793
	17.280000	0.356743
	17.285000	0.346877
	17.290000	0.241638
	17.295000	0.251504
	17.300000	0.353454
	17.305000	0.337011
	17.310000	0.235060
	17.315000	0.244927
	17.320000	0.346877
	17.325000	0.333722
	17.330000	0.231772
	17.335000	0.241638
	17.340000	0.343588
	17.345000	0.330433
	17.350000	0.225194
	17.355000	0.238349
	17.360000	0.337011
	17.365000	0.320567
	17.370000	0.218617
	17.375000	0.231772
	17.380000	0.340299
	17.385000	0.320567
	17.390000	0.215328
	17.395000	0.235060
	17.400000	0.330433
	17.405000	0.317278
	17.410000	0.215328
	17.415000	0.228483
	17.420000	0.327145
	17.425000	0.317278
	17.430000	0.208751
	17.435000	0.228483
	17.440000	0.330433
	17.445000	0.313990
	17.450000	0.212039
	17.455000	0.228483
	17.460000	0.337011
	17.465000	0.313990
	17.470000	0.212039
	17.475000	0.231772
	17.480000	0.333722
	17.485000	0.320567
	17.490000	0.215328
	17.495000	0.228483
	17.500000	0.337011
	17.505000	0.317278
	17.510000	0.212039
	17.515000	0.235060
	17.520000	0.333722
	17.525000	0.323856
	17.530000	0.215328
	17.535000	0.238349
	17.540000	0.340299
	17.545000	0.323856
	17.550000	0.218617
	17.555000	0.238349
	17.560000	0.343588
	17.565000	0.330433
	17.570000	0.225194
	17.575000	0.248215
	17.580000	0.353454
	17.585000	0.333722
	17.590000	0.231772
	17.595000	0.261370
	17.600000	0.360032
	17.605000	0.346877
	17.610000	0.241638
	17.615000	0.267948
	17.620000	0.376475
	17.625000	0.356743
	17.630000	0.254793
	17.635000	0.277814
	17.640000	0.379764
	17.645000	0.363321
	17.650000	0.261370
	17.655000	0.284391
	17.660000	0.386342
	17.665000	0.360032
	17.670000	0.261370
	17.675000	0.284391
	17.680000	0.386342
	17.685000	0.363321
	17.690000	0.264659
	17.695000	0.287680
	17.700000	0.386342
	17.705000	0.366609
	17.710000	0.267948
	17.715000	0.284391
	17.720000	0.386342
	17.725000	0.366609
	17.730000	0.261370
	17.735000	0.284391
	17.740000	0.386342
	17.745000	0.363321
	17.750000	0.261370
	17.755000	0.284391
	17.760000	0.386342
	17.765000	0.363321
	17.770000	0.267948
	17.775000	0.287680
	17.780000	0.396208
	17.785000	0.366609
	17.790000	0.267948
	17.795000	0.290969
	17.800000	0.392919
	17.805000	0.366609
	17.810000	0.267948
	17.815000	0.287680
	17.820000	0.389630
	17.825000	0.363321
	17.830000	0.261370
	17.835000	0.281102
	17.840000	0.386342
	17.845000	0.363321
	17.850000	0.261370
	17.855000	0.287680
	17.860000	0.386342
	17.865000	0.356743
	17.870000	0.258081
	17.875000	0.281102
	17.880000	0.383053
	17.885000	0.363321
	17.890000	0.258081
	17.895000	0.287680
	17.900000	0.379764
	17.905000	0.356743
	17.910000	0.258081
	17.915000	0.281102
	17.920000	0.383053
	17.925000	0.360032
	17.930000	0.258081
	17.935000	0.281102
	17.940000	0.383053
	17.945000	0.356743
	17.950000	0.258081
	17.955000	0.284391
	17.960000	0.383053
	17.965000	0.360032
	17.970000	0.254793
	17.975000	0.281102
	17.980000	0.389630
	17.985000	0.356743
	17.990000	0.258081
	17.995000	0.287680
	18.000000	0.386342
	18.005000	0.353454
	18.010000	0.254793
	18.015000	0.284391
	18.020000	0.383053
	18.025000	0.356743
	18.030000	0.258081
	18.035000	0.287680
	18.040000	0.383053
	18.045000	0.353454
	18.050000	0.251504
	18.055000	0.284391
	18.060000	0.379764
	18.065000	0.350166
	18.070000	0.258081
	18.075000	0.281102
	18.080000	0.376475
	18.085000	0.353454
	18.090000	0.251504
	18.095000	0.284391
	18.100000	0.383053
	18.105000	0.350166
	18.110000	0.251504
	18.115000	0.284391
	18.120000	0.379764
	18.125000	0.353454
	18.130000	0.251504
	18.135000	0.277814
	18.140000	0.383053
	18.145000	0.346877
	18.150000	0.254793
	18.155000	0.281102
	18.160000	0.379764
	18.165000	0.350166
	18.170000	0.244927
	18.175000	0.281102
	18.180000	0.379764
	18.185000	0.350166
	18.190000	0.254793
	18.195000	0.277814
	18.200000	0.376475
	18.205000	0.346877
	18.210000	0.248215
	18.215000	0.274525
	18.220000	0.376475
	18.225000	0.346877
	18.230000	0.244927
	18.235000	0.277814
	18.240000	0.376475
	18.245000	0.343588
	18.250000	0.238349
	18.255000	0.274525
	18.260000	0.373187
	18.265000	0.343588
	18.270000	0.241638
	18.275000	0.277814
	18.280000	0.373187
	18.285000	0.337011
	18.290000	0.238349
	18.295000	0.277814
	18.300000	0.373187
	18.305000	0.333722
	18.310000	0.238349
	18.315000	0.277814
	18.320000	0.366609
	18.325000	0.337011
	18.330000	0.238349
	18.335000	0.274525
	18.340000	0.369898
	18.345000	0.340299
	18.350000	0.238349
	18.355000	0.277814
	18.360000	0.369898
	18.365000	0.333722
	18.370000	0.235060
	18.375000	0.274525
	18.380000	0.369898
	18.385000	0.333722
	18.390000	0.235060
	18.395000	0.267948
	18.400000	0.363321
	18.405000	0.330433
	18.410000	0.235060
	18.415000	0.267948
	18.420000	0.363321
	18.425000	0.327145
	18.430000	0.238349
	18.435000	0.267948
	18.440000	0.363321
	18.445000	0.330433
	18.450000	0.231772
	18.455000	0.267948
	18.460000	0.363321
	18.465000	0.330433
	18.470000	0.231772
	18.475000	0.267948
	18.480000	0.369898
	18.485000	0.330433
	18.490000	0.231772
	18.495000	0.267948
	18.500000	0.363321
	18.505000	0.327145
	18.510000	0.231772
	18.515000	0.274525
	18.520000	0.363321
	18.525000	0.327145
	18.530000	0.228483
	18.535000	0.267948
	18.540000	0.366609
	18.545000	0.323856
	18.550000	0.228483
	18.555000	0.274525
	18.560000	0.366609
	18.565000	0.327145
	18.570000	0.228483
	18.575000	0.267948
	18.580000	0.363321
	18.585000	0.323856
	18.590000	0.228483
	18.595000	0.264659
	18.600000	0.366609
	18.605000	0.327145
	18.610000	0.225194
	18.615000	0.267948
	18.620000	0.360032
	18.625000	0.323856
	18.630000	0.228483
	18.635000	0.267948
	18.640000	0.363321
	18.645000	0.323856
	18.650000	0.228483
	18.655000	0.267948
	18.660000	0.360032
	18.665000	0.320567
	18.670000	0.225194
	18.675000	0.267948
	18.680000	0.363321
	18.685000	0.320567
	18.690000	0.228483
	18.695000	0.261370
	18.700000	0.363321
	18.705000	0.320567
	18.710000	0.228483
	18.715000	0.267948
	18.720000	0.363321
	18.725000	0.317278
	18.730000	0.225194
	18.735000	0.264659
	18.740000	0.353454
	18.745000	0.320567
	18.750000	0.225194
	18.755000	0.267948
	18.760000	0.360032
	18.765000	0.317278
	18.770000	0.221905
	18.775000	0.267948
	18.780000	0.363321
	18.785000	0.313990
	18.790000	0.221905
	18.795000	0.264659
	18.800000	0.360032
	18.805000	0.310701
	18.810000	0.221905
	18.815000	0.267948
	18.820000	0.360032
	18.825000	0.313990
	18.830000	0.218617
	18.835000	0.261370
	18.840000	0.360032
	18.845000	0.310701
	18.850000	0.221905
	18.855000	0.267948
	18.860000	0.353454
	18.865000	0.313990
	18.870000	0.218617
	18.875000	0.267948
	18.880000	0.356743
	18.885000	0.310701
	18.890000	0.215328
	18.895000	0.261370
	18.900000	0.360032
	18.905000	0.310701
	18.910000	0.221905
	18.915000	0.264659
	18.920000	0.360032
	18.925000	0.313990
	18.930000	0.218617
	18.935000	0.264659
	18.940000	0.356743
	18.945000	0.307412
	18.950000	0.221905
	18.955000	0.264659
	18.960000	0.356743
	18.965000	0.310701
	18.970000	0.218617
	18.975000	0.261370
	18.980000	0.356743
	18.985000	0.310701
	18.990000	0.218617
	18.995000	0.264659
	19.000000	0.356743
	19.005000	0.307412
	19.010000	0.215328
	19.015000	0.264659
	19.020000	0.353454
	19.025000	0.307412
	19.030000	0.215328
	19.035000	0.264659
	19.040000	0.356743
	19.045000	0.300835
	19.050000	0.218617
	19.055000	0.264659
	19.060000	0.356743
	19.065000	0.307412
	19.070000	0.215328
	19.075000	0.261370
	19.080000	0.350166
	19.085000	0.300835
	19.090000	0.208751
	19.095000	0.261370
	19.100000	0.350166
	19.105000	0.294257
	19.110000	0.202173
	19.115000	0.251504
	19.120000	0.340299
	19.125000	0.290969
	19.130000	0.198884
	19.135000	0.251504
	19.140000	0.337011
	19.145000	0.281102
	19.150000	0.195596
	19.155000	0.244927
	19.160000	0.330433
	19.165000	0.281102
	19.170000	0.185730
	19.175000	0.241638
	19.180000	0.327145
	19.185000	0.274525
	19.190000	0.182441
	19.195000	0.231772
	19.200000	0.323856
	19.205000	0.274525
	19.210000	0.179152
	19.215000	0.235060
	19.220000	0.320567
	19.225000	0.271236
	19.230000	0.182441
	19.235000	0.235060
	19.240000	0.330433
	19.245000	0.274525
	19.250000	0.185730
	19.255000	0.238349
	19.260000	0.330433
	19.265000	0.287680
	19.270000	0.192307
	19.275000	0.251504
	19.280000	0.340299
	19.285000	0.290969
	19.290000	0.202173
	19.295000	0.258081
	19.300000	0.350166
	19.305000	0.290969
	19.310000	0.205462
	19.315000	0.264659
	19.320000	0.353454
	19.325000	0.300835
	19.330000	0.215328
	19.335000	0.274525
	19.340000	0.363321
	19.345000	0.317278
	19.350000	0.238349
	19.355000	0.294257
	19.360000	0.383053
	19.365000	0.323856
	19.370000	0.235060
	19.375000	0.287680
	19.380000	0.376475
	19.385000	0.320567
	19.390000	0.235060
	19.395000	0.290969
	19.400000	0.373187
	19.405000	0.317278
	19.410000	0.231772
	19.415000	0.287680
	19.420000	0.369898
	19.425000	0.317278
	19.430000	0.228483
	19.435000	0.284391
	19.440000	0.369898
	19.445000	0.317278
	19.450000	0.225194
	19.455000	0.284391
	19.460000	0.369898
	19.465000	0.317278
	19.470000	0.231772
	19.475000	0.287680
	19.480000	0.373187
	19.485000	0.313990
	19.490000	0.228483
	19.495000	0.284391
	19.500000	0.369898
	19.505000	0.313990
	19.510000	0.225194
	19.515000	0.287680
	19.520000	0.369898
	19.525000	0.313990
	19.530000	0.228483
	19.535000	0.284391
	19.540000	0.369898
	19.545000	0.317278
	19.550000	0.225194
	19.555000	0.287680
	19.560000	0.373187
	19.565000	0.313990
	19.570000	0.228483
	19.575000	0.287680
	19.580000	0.373187
	19.585000	0.310701
	19.590000	0.231772
	19.595000	0.284391
	19.600000	0.373187
	19.605000	0.313990
	19.610000	0.221905
	19.615000	0.284391
	19.620000	0.373187
	19.625000	0.313990
	19.630000	0.225194
	19.635000	0.287680
	19.640000	0.369898
	19.645000	0.310701
	19.650000	0.228483
	19.655000	0.290969
	19.660000	0.366609
	19.665000	0.310701
	19.670000	0.228483
	19.675000	0.284391
	19.680000	0.369898
	19.685000	0.313990
	19.690000	0.221905
	19.695000	0.287680
	19.700000	0.369898
	19.705000	0.310701
	19.710000	0.221905
	19.715000	0.284391
	19.720000	0.360032
	19.725000	0.307412
	19.730000	0.221905
	19.735000	0.284391
	19.740000	0.366609
	19.745000	0.304124
	19.750000	0.221905
	19.755000	0.281102
	19.760000	0.366609
	19.765000	0.304124
	19.770000	0.221905
	19.775000	0.284391
	19.780000	0.363321
	19.785000	0.307412
	19.790000	0.221905
	19.795000	0.287680
	19.800000	0.373187
	19.805000	0.304124
	19.810000	0.225194
	19.815000	0.287680
	19.820000	0.363321
	19.825000	0.304124
	19.830000	0.221905
	19.835000	0.281102
	19.840000	0.366609
	19.845000	0.304124
	19.850000	0.221905
	19.855000	0.284391
	19.860000	0.366609
	19.865000	0.300835
	19.870000	0.221905
	19.875000	0.284391
	19.880000	0.366609
	19.885000	0.297546
	19.890000	0.218617
	19.895000	0.284391
	19.900000	0.363321
	19.905000	0.300835
	19.910000	0.218617
	19.915000	0.287680
	19.920000	0.366609
	19.925000	0.300835
	19.930000	0.215328
	19.935000	0.284391
	19.940000	0.363321
	19.945000	0.297546
	19.950000	0.221905
	19.955000	0.284391
	19.960000	0.360032
	19.965000	0.300835
	19.970000	0.218617
	19.975000	0.287680
	19.980000	0.363321
	19.985000	0.300835
	19.990000	0.212039
	19.995000	0.281102
	20.000000	0.363321
	20.005000	0.297546
	20.010000	0.215328
	20.015000	0.287680
	20.020000	0.363321
	20.025000	0.300835
	20.030000	0.215328
	20.035000	0.281102
	20.040000	0.363321
	20.045000	0.297546
	20.050000	0.215328
	20.055000	0.281102
	20.060000	0.363321
	20.065000	0.297546
	20.070000	0.215328
	20.075000	0.287680
	20.080000	0.356743
	20.085000	0.297546
	20.090000	0.218617
	20.095000	0.284391
	20.100000	0.366609
	20.105000	0.294257
	20.110000	0.218617
	20.115000	0.277814
	20.120000	0.363321
	20.125000	0.297546
	20.130000	0.221905
	20.135000	0.284391
	20.140000	0.360032
	20.145000	0.294257
	20.150000	0.215328
	20.155000	0.290969
	20.160000	0.360032
	20.165000	0.294257
	20.170000	0.215328
	20.175000	0.287680
	20.180000	0.363321
	20.185000	0.294257
	20.190000	0.212039
	20.195000	0.284391
	20.200000	0.360032
	20.205000	0.294257
	20.210000	0.218617
	20.215000	0.287680
	20.220000	0.363321
	20.225000	0.290969
	20.230000	0.215328
	20.235000	0.284391
	20.240000	0.360032
	20.245000	0.294257
	20.250000	0.215328
	20.255000	0.277814
	20.260000	0.360032
	20.265000	0.287680
	20.270000	0.212039
	20.275000	0.284391
	20.280000	0.360032
	20.285000	0.284391
	20.290000	0.212039
	20.295000	0.274525
	20.300000	0.356743
	20.305000	0.287680
	20.310000	0.212039
	20.315000	0.281102
	20.320000	0.356743
	20.325000	0.287680
	20.330000	0.212039
	20.335000	0.281102
	20.340000	0.356743
	20.345000	0.287680
	20.350000	0.212039
	20.355000	0.281102
	20.360000	0.356743
	20.365000	0.284391
	20.370000	0.212039
	20.375000	0.277814
	20.380000	0.353454
	20.385000	0.281102
	20.390000	0.212039
	20.395000	0.281102
	20.400000	0.356743
	20.405000	0.284391
	20.410000	0.205462
	20.415000	0.281102
	20.420000	0.353454
	20.425000	0.281102
	20.430000	0.208751
	20.435000	0.284391
	20.440000	0.353454
	20.445000	0.284391
	20.450000	0.205462
	20.455000	0.274525
	20.460000	0.346877
	20.465000	0.274525
	20.470000	0.198884
	20.475000	0.271236
	20.480000	0.340299
	20.485000	0.264659
	20.490000	0.189018
	20.495000	0.261370
	20.500000	0.333722
	20.505000	0.261370
	20.510000	0.182441
	20.515000	0.251504
	20.520000	0.323856
	20.525000	0.251504
	20.530000	0.175863
	20.535000	0.244927
	20.540000	0.320567
	20.545000	0.241638
	20.550000	0.169286
	20.555000	0.244927
	20.560000	0.310701
	20.565000	0.238349
	20.570000	0.159420
	20.575000	0.241638
	20.580000	0.310701
	20.585000	0.238349
	20.590000	0.165997
	20.595000	0.241638
	20.600000	0.313990
	20.605000	0.235060
	20.610000	0.162708
	20.615000	0.241638
	20.620000	0.317278
	20.625000	0.241638
	20.630000	0.169286
	20.635000	0.241638
	20.640000	0.320567
	20.645000	0.248215
	20.650000	0.175863
	20.655000	0.258081
	20.660000	0.333722
	20.665000	0.261370
	20.670000	0.192307
	20.675000	0.277814
	20.680000	0.346877
	20.685000	0.277814
	20.690000	0.212039
	20.695000	0.290969
	20.700000	0.360032
	20.705000	0.290969
	20.710000	0.225194
	20.715000	0.300835
	20.720000	0.373187
	20.725000	0.300835
	20.730000	0.231772
	20.735000	0.310701
	20.740000	0.379764
	20.745000	0.307412
	20.750000	0.235060
	20.755000	0.313990
	20.760000	0.389630
	20.765000	0.313990
	20.770000	0.244927
	20.775000	0.317278
	20.780000	0.386342
	20.785000	0.310701
	20.790000	0.244927
	20.795000	0.317278
	20.800000	0.383053
	20.805000	0.300835
	20.810000	0.231772
	20.815000	0.307412
	20.820000	0.373187
	20.825000	0.300835
	20.830000	0.228483
	20.835000	0.307412
	20.840000	0.369898
	20.845000	0.294257
	20.850000	0.228483
	20.855000	0.300835
	20.860000	0.369898
	20.865000	0.290969
	20.870000	0.228483
	20.875000	0.300835
	20.880000	0.366609
	20.885000	0.290969
	20.890000	0.225194
	20.895000	0.300835
	20.900000	0.369898
	20.905000	0.290969
	20.910000	0.221905
	20.915000	0.300835
	20.920000	0.366609
	20.925000	0.287680
	20.930000	0.221905
	20.935000	0.297546
	20.940000	0.366609
	20.945000	0.287680
	20.950000	0.221905
	20.955000	0.297546
	20.960000	0.369898
	20.965000	0.287680
	20.970000	0.218617
	20.975000	0.304124
	20.980000	0.363321
	20.985000	0.281102
	20.990000	0.215328
	20.995000	0.297546
	21.000000	0.363321
	21.005000	0.284391
	21.010000	0.218617
	21.015000	0.297546
	21.020000	0.360032
	21.025000	0.284391
	21.030000	0.215328
	21.035000	0.297546
	21.040000	0.360032
	21.045000	0.281102
	21.050000	0.215328
	21.055000	0.294257
	21.060000	0.356743
	21.065000	0.277814
	21.070000	0.218617
	21.075000	0.294257
	21.080000	0.356743
	21.085000	0.277814
	21.090000	0.218617
	21.095000	0.294257
	21.100000	0.363321
	21.105000	0.277814
	21.110000	0.215328
	21.115000	0.300835
	21.120000	0.356743
	21.125000	0.281102
	21.130000	0.215328
	21.135000	0.290969
	21.140000	0.356743
	21.145000	0.274525
	21.150000	0.212039
	21.155000	0.294257
	21.160000	0.353454
	21.165000	0.274525
	21.170000	0.212039
	21.175000	0.294257
	21.180000	0.360032
	21.185000	0.277814
	21.190000	0.215328
	21.195000	0.294257
	21.200000	0.356743
	21.205000	0.274525
	21.210000	0.208751
	21.215000	0.290969
	21.220000	0.353454
	21.225000	0.274525
	21.230000	0.208751
	21.235000	0.294257
	21.240000	0.356743
	21.245000	0.274525
	21.250000	0.212039
	21.255000	0.294257
	21.260000	0.353454
	21.265000	0.274525
	21.270000	0.212039
	21.275000	0.294257
	21.280000	0.356743
	21.285000	0.274525
	21.290000	0.212039
	21.295000	0.294257
	21.300000	0.353454
	21.305000	0.277814
	21.310000	0.212039
	21.315000	0.297546
	21.320000	0.353454
	21.325000	0.274525
	21.330000	0.208751
	21.335000	0.294257
	21.340000	0.356743
	21.345000	0.274525
	21.350000	0.208751
	21.355000	0.294257
	21.360000	0.356743
	21.365000	0.271236
	21.370000	0.212039
	21.375000	0.290969
	21.380000	0.356743
	21.385000	0.264659
	21.390000	0.208751
	21.395000	0.294257
	21.400000	0.350166
	21.405000	0.271236
	21.410000	0.212039
	21.415000	0.290969
	21.420000	0.353454
	21.425000	0.274525
	21.430000	0.212039
	21.435000	0.294257
	21.440000	0.353454
	21.445000	0.271236
	21.450000	0.215328
	21.455000	0.294257
	21.460000	0.356743
	21.465000	0.271236
	21.470000	0.208751
	21.475000	0.297546
	21.480000	0.356743
	21.485000	0.271236
	21.490000	0.212039
	21.495000	0.304124
	21.500000	0.353454
	21.505000	0.267948
	21.510000	0.212039
	21.515000	0.300835
	21.520000	0.350166
	21.525000	0.267948
	21.530000	0.212039
	21.535000	0.300835
	21.540000	0.356743
	21.545000	0.271236
	21.550000	0.212039
	21.555000	0.297546
	21.560000	0.360032
	21.565000	0.267948
	21.570000	0.208751
	21.575000	0.297546
	21.580000	0.353454
	21.585000	0.267948
	21.590000	0.212039
	21.595000	0.297546
	21.600000	0.356743
	21.605000	0.271236
	21.610000	0.208751
	21.615000	0.297546
	21.620000	0.353454
	21.625000	0.271236
	21.630000	0.215328
	21.635000	0.294257
	21.640000	0.350166
	21.645000	0.267948
	21.650000	0.215328
	21.655000	0.300835
	21.660000	0.346877
	21.665000	0.267948
	21.670000	0.215328
	21.675000	0.297546
	21.680000	0.353454
	21.685000	0.267948
	21.690000	0.212039
	21.695000	0.297546
	21.700000	0.356743
	21.705000	0.264659
	21.710000	0.212039
	21.715000	0.297546
	21.720000	0.350166
	21.725000	0.261370
	21.730000	0.212039
	21.735000	0.300835
	21.740000	0.350166
	21.745000	0.261370
	21.750000	0.208751
	21.755000	0.297546
	21.760000	0.353454
	21.765000	0.261370
	21.770000	0.208751
	21.775000	0.297546
	21.780000	0.350166
	21.785000	0.264659
	21.790000	0.205462
	21.795000	0.300835
	21.800000	0.350166
	21.805000	0.261370
	21.810000	0.208751
	21.815000	0.297546
	21.820000	0.353454
	21.825000	0.261370
	21.830000	0.212039
	21.835000	0.297546
	21.840000	0.350166
	21.845000	0.258081
	21.850000	0.205462
	21.855000	0.300835
	21.860000	0.346877
	21.865000	0.258081
	21.870000	0.208751
	21.875000	0.297546
	21.880000	0.346877
	21.885000	0.258081
	21.890000	0.208751
	21.895000	0.300835
	21.900000	0.350166
	21.905000	0.258081
	21.910000	0.208751
	21.915000	0.300835
	21.920000	0.346877
	21.925000	0.258081
	21.930000	0.202173
	21.935000	0.294257
	21.940000	0.346877
	21.945000	0.251504
	21.950000	0.198884
	21.955000	0.287680
	21.960000	0.337011
	21.965000	0.244927
	21.970000	0.189018
	21.975000	0.274525
	21.980000	0.323856
	21.985000	0.225194
	21.990000	0.175863
	21.995000	0.264659
	22.000000	0.307412
	22.005000	0.212039
	22.010000	0.162708
	22.015000	0.248215
	22.020000	0.297546
	22.025000	0.205462
	22.030000	0.146265
	22.035000	0.244927
	22.040000	0.290969
	22.045000	0.195596
	22.050000	0.146265
	22.055000	0.238349
	22.060000	0.287680
	22.065000	0.192307
	22.070000	0.146265
	22.075000	0.241638
	22.080000	0.287680
	22.085000	0.195596
	22.090000	0.146265
	22.095000	0.244927
	22.100000	0.290969
	22.105000	0.195596
	22.110000	0.152842
	22.115000	0.248215
	22.120000	0.300835
	22.125000	0.208751
	22.130000	0.162708
	22.135000	0.261370
	22.140000	0.313990
	22.145000	0.221905
	22.150000	0.179152
	22.155000	0.274525
	22.160000	0.330433
	22.165000	0.231772
	22.170000	0.189018
	22.175000	0.290969
	22.180000	0.340299
	22.185000	0.251504
	22.190000	0.212039
	22.195000	0.307412
	22.200000	0.356743
	22.205000	0.267948
	22.210000	0.221905
	22.215000	0.313990
	22.220000	0.366609
	22.225000	0.277814
	22.230000	0.235060
	22.235000	0.327145
	22.240000	0.376475
	22.245000	0.287680
	22.250000	0.244927
	22.255000	0.333722
	22.260000	0.379764
	22.265000	0.290969
	22.270000	0.244927
	22.275000	0.340299
	22.280000	0.386342
	22.285000	0.287680
	22.290000	0.241638
	22.295000	0.340299
	22.300000	0.379764
	22.305000	0.284391
	22.310000	0.244927
	22.315000	0.333722
	22.320000	0.383053
	22.325000	0.281102
	22.330000	0.244927
	22.335000	0.333722
	22.340000	0.369898
	22.345000	0.277814
	22.350000	0.235060
	22.355000	0.320567
	22.360000	0.366609
	22.365000	0.274525
	22.370000	0.225194
	22.375000	0.320567
	22.380000	0.360032
	22.385000	0.264659
	22.390000	0.225194
	22.395000	0.317278
	22.400000	0.360032
	22.405000	0.261370
	22.410000	0.221905
	22.415000	0.320567
	22.420000	0.356743
	22.425000	0.261370
	22.430000	0.221905
	22.435000	0.317278
	22.440000	0.353454
	22.445000	0.264659
	22.450000	0.221905
	22.455000	0.313990
	22.460000	0.356743
	22.465000	0.261370
	22.470000	0.218617
	22.475000	0.313990
	22.480000	0.353454
	22.485000	0.254793
	22.490000	0.215328
	22.495000	0.310701
	22.500000	0.350166
	22.505000	0.258081
	22.510000	0.215328
	22.515000	0.310701
	22.520000	0.350166
	22.525000	0.258081
	22.530000	0.215328
	22.535000	0.310701
	22.540000	0.350166
	22.545000	0.254793
	22.550000	0.218617
	22.555000	0.307412
	22.560000	0.350166
	22.565000	0.251504
	22.570000	0.215328
	22.575000	0.307412
	22.580000	0.346877
	22.585000	0.254793
	22.590000	0.215328
	22.595000	0.313990
	22.600000	0.346877
	22.605000	0.251504
	22.610000	0.215328
	22.615000	0.310701
	22.620000	0.350166
	22.625000	0.248215
	22.630000	0.212039
	22.635000	0.307412
	22.640000	0.343588
	22.645000	0.248215
	22.650000	0.215328
	22.655000	0.307412
	22.660000	0.346877
	22.665000	0.251504
	22.670000	0.215328
	22.675000	0.310701
	22.680000	0.343588
	22.685000	0.251504
	22.690000	0.212039
	22.695000	0.307412
	22.700000	0.346877
	22.705000	0.248215
	22.710000	0.208751
	22.715000	0.310701
	22.720000	0.343588
	22.725000	0.241638
	22.730000	0.208751
	22.735000	0.310701
	22.740000	0.340299
	22.745000	0.244927
	22.750000	0.212039
	22.755000	0.307412
	22.760000	0.343588
	22.765000	0.244927
	22.770000	0.212039
	22.775000	0.307412
	22.780000	0.343588
	22.785000	0.241638
	22.790000	0.215328
	22.795000	0.307412
	22.800000	0.340299
	22.805000	0.244927
	22.810000	0.212039
	22.815000	0.307412
	22.820000	0.340299
	22.825000	0.244927
	22.830000	0.212039
	22.835000	0.307412
	22.840000	0.340299
	22.845000	0.241638
	22.850000	0.208751
	22.855000	0.304124
	22.860000	0.340299
	22.865000	0.241638
	22.870000	0.208751
	22.875000	0.307412
	22.880000	0.343588
	22.885000	0.241638
	22.890000	0.208751
	22.895000	0.310701
	22.900000	0.337011
	22.905000	0.241638
	22.910000	0.212039
	22.915000	0.307412
	22.920000	0.346877
	22.925000	0.238349
	22.930000	0.208751
	22.935000	0.307412
	22.940000	0.340299
	22.945000	0.241638
	22.950000	0.205462
	22.955000	0.307412
	22.960000	0.337011
	22.965000	0.235060
	22.970000	0.208751
	22.975000	0.310701
	22.980000	0.333722
	22.985000	0.241638
	22.990000	0.208751
	22.995000	0.307412
	23.000000	0.340299
	23.005000	0.235060
	23.010000	0.208751
	23.015000	0.304124
	23.020000	0.333722
	23.025000	0.231772
	23.030000	0.205462
	23.035000	0.300835
	23.040000	0.333722
	23.045000	0.235060
	23.050000	0.205462
	23.055000	0.304124
	23.060000	0.337011
	23.065000	0.238349
	23.070000	0.205462
	23.075000	0.307412
	23.080000	0.337011
	23.085000	0.231772
	23.090000	0.202173
	23.095000	0.304124
	23.100000	0.333722
	23.105000	0.235060
	23.110000	0.208751
	23.115000	0.304124
	23.120000	0.337011
	23.125000	0.238349
	23.130000	0.208751
	23.135000	0.304124
	23.140000	0.333722
	23.145000	0.238349
	23.150000	0.208751
	23.155000	0.310701
	23.160000	0.330433
	23.165000	0.235060
	23.170000	0.208751
	23.175000	0.307412
	23.180000	0.333722
	23.185000	0.235060
	23.190000	0.208751
	23.195000	0.310701
	23.200000	0.330433
	23.205000	0.228483
	23.210000	0.208751
	23.215000	0.307412
	23.220000	0.337011
	23.225000	0.231772
	23.230000	0.205462
	23.235000	0.307412
	23.240000	0.333722
	23.245000	0.231772
	23.250000	0.208751
	23.255000	0.310701
	23.260000	0.333722
	23.265000	0.228483
	23.270000	0.205462
	23.275000	0.307412
	23.280000	0.330433
	23.285000	0.231772
	23.290000	0.208751
	23.295000	0.304124
	23.300000	0.330433
	23.305000	0.228483
	23.310000	0.202173
	23.315000	0.307412
	23.320000	0.333722
	23.325000	0.228483
	23.330000	0.205462
	23.335000	0.307412
	23.340000	0.330433
	23.345000	0.225194
	23.350000	0.202173
	23.355000	0.304124
	23.360000	0.330433
	23.365000	0.225194
	23.370000	0.202173
	23.375000	0.300835
	23.380000	0.327145
	23.385000	0.225194
	23.390000	0.202173
	23.395000	0.300835
	23.400000	0.327145
	23.405000	0.221905
	23.410000	0.205462
	23.415000	0.304124
	23.420000	0.323856
	23.425000	0.221905
	23.430000	0.198884
	23.435000	0.304124
	23.440000	0.327145
	23.445000	0.221905
	23.450000	0.198884
	23.455000	0.304124
	23.460000	0.323856
	23.465000	0.221905
	23.470000	0.202173
	23.475000	0.304124
	23.480000	0.323856
	23.485000	0.221905
	23.490000	0.202173
	23.495000	0.304124
	23.500000	0.323856
	23.505000	0.221905
	23.510000	0.202173
	23.515000	0.307412
	23.520000	0.327145
	23.525000	0.221905
	23.530000	0.208751
	23.535000	0.304124
	23.540000	0.323856
	23.545000	0.221905
	23.550000	0.198884
	23.555000	0.300835
	23.560000	0.323856
	23.565000	0.221905
	23.570000	0.198884
	23.575000	0.307412
	23.580000	0.317278
	23.585000	0.221905
	23.590000	0.205462
	23.595000	0.304124
	23.600000	0.327145
	23.605000	0.218617
	23.610000	0.205462
	23.615000	0.307412
	23.620000	0.323856
	23.625000	0.218617
	23.630000	0.205462
	23.635000	0.304124
	23.640000	0.323856
	23.645000	0.218617
	23.650000	0.205462
	23.655000	0.304124
	23.660000	0.320567
	23.665000	0.215328
	23.670000	0.205462
	23.675000	0.304124
	23.680000	0.320567
	23.685000	0.215328
	23.690000	0.202173
	23.695000	0.304124
	23.700000	0.320567
	23.705000	0.221905
	23.710000	0.202173
	23.715000	0.304124
	23.720000	0.320567
	23.725000	0.215328
	23.730000	0.205462
	23.735000	0.307412
	23.740000	0.323856
	23.745000	0.218617
	23.750000	0.205462
	23.755000	0.304124
	23.760000	0.323856
	23.765000	0.218617
	23.770000	0.202173
	23.775000	0.304124
	23.780000	0.323856
	23.785000	0.212039
	23.790000	0.205462
	23.795000	0.310701
	23.800000	0.323856
	23.805000	0.218617
	23.810000	0.202173
	23.815000	0.307412
	23.820000	0.323856
	23.825000	0.212039
	23.830000	0.205462
	23.835000	0.304124
	23.840000	0.320567
	23.845000	0.215328
	23.850000	0.208751
	23.855000	0.307412
	23.860000	0.320567
	23.865000	0.215328
	23.870000	0.208751
	23.875000	0.310701
	23.880000	0.317278
	23.885000	0.218617
	23.890000	0.205462
	23.895000	0.313990
	23.900000	0.320567
	23.905000	0.215328
	23.910000	0.212039
	23.915000	0.310701
	23.920000	0.320567
	23.925000	0.218617
	23.930000	0.205462
	23.935000	0.307412
	23.940000	0.323856
	23.945000	0.218617
	23.950000	0.208751
	23.955000	0.313990
	23.960000	0.320567
	23.965000	0.218617
	23.970000	0.208751
	23.975000	0.317278
	23.980000	0.320567
	23.985000	0.215328
	23.990000	0.208751
	23.995000	0.313990
	24.000000	0.317278
	24.005000	0.218617
	24.010000	0.208751
	24.015000	0.313990
	24.020000	0.320567
	24.025000	0.218617
	24.030000	0.212039
	24.035000	0.313990
	24.040000	0.323856
	24.045000	0.218617
	24.050000	0.212039
	24.055000	0.317278
	24.060000	0.320567
	24.065000	0.221905
	24.070000	0.212039
	24.075000	0.320567
	24.080000	0.317278
	24.085000	0.215328
	24.090000	0.208751
	24.095000	0.317278
	24.100000	0.320567
	24.105000	0.215328
	24.110000	0.212039
	24.115000	0.317278
	24.120000	0.320567
	24.125000	0.215328
	24.130000	0.212039
	24.135000	0.317278
	24.140000	0.317278
	24.145000	0.212039
	24.150000	0.212039
	24.155000	0.313990
	24.160000	0.313990
	24.165000	0.212039
	24.170000	0.208751
	24.175000	0.313990
	24.180000	0.317278
	24.185000	0.215328
	24.190000	0.212039
	24.195000	0.313990
	24.200000	0.317278
	24.205000	0.215328
	24.210000	0.208751
	24.215000	0.310701
	24.220000	0.317278
	24.225000	0.212039
	24.230000	0.212039
	24.235000	0.317278
	24.240000	0.320567
	24.245000	0.215328
	24.250000	0.208751
	24.255000	0.317278
	24.260000	0.317278
	24.265000	0.215328
	24.270000	0.212039
	24.275000	0.313990
	24.280000	0.313990
	24.285000	0.212039
	24.290000	0.205462
	24.295000	0.307412
	24.300000	0.307412
	24.305000	0.198884
	24.310000	0.195596
	24.315000	0.297546
	24.320000	0.284391
	24.325000	0.185730
	24.330000	0.175863
	24.335000	0.281102
	24.340000	0.281102
	24.345000	0.169286
	24.350000	0.169286
	24.355000	0.274525
	24.360000	0.267948
	24.365000	0.162708
	24.370000	0.162708
	24.375000	0.274525
	24.380000	0.271236
	24.385000	0.162708
	24.390000	0.169286
	24.395000	0.271236
	24.400000	0.274525
	24.405000	0.169286
	24.410000	0.172575
	24.415000	0.281102
	24.420000	0.281102
	24.425000	0.172575
	24.430000	0.172575
	24.435000	0.281102
	24.440000	0.287680
	24.445000	0.182441
	24.450000	0.185730
	24.455000	0.294257
	24.460000	0.290969
	24.465000	0.189018
	24.470000	0.195596
	24.475000	0.304124
	24.480000	0.300835
	24.485000	0.205462
	24.490000	0.205462
	24.495000	0.310701
	24.500000	0.310701
	24.505000	0.208751
	24.510000	0.208751
	24.515000	0.313990
	24.520000	0.313990
	24.525000	0.212039
	24.530000	0.218617
	24.535000	0.323856
	24.540000	0.317278
	24.545000	0.215328
	24.550000	0.221905
	24.555000	0.323856
	24.560000	0.327145
	24.565000	0.218617
	24.570000	0.228483
	24.575000	0.330433
	24.580000	0.323856
	24.585000	0.221905
	24.590000	0.225194
	24.595000	0.330433
	24.600000	0.323856
	24.605000	0.218617
	24.610000	0.221905
	24.615000	0.327145
	24.620000	0.323856
	24.625000	0.215328
	24.630000	0.221905
	24.635000	0.323856
	24.640000	0.320567
	24.645000	0.208751
	24.650000	0.221905
	24.655000	0.323856
	24.660000	0.317278
	24.665000	0.208751
	24.670000	0.221905
	24.675000	0.317278
	24.680000	0.313990
	24.685000	0.212039
	24.690000	0.218617
	24.695000	0.323856
	24.700000	0.313990
	24.705000	0.212039
	24.710000	0.221905
	24.715000	0.327145
	24.720000	0.313990
	24.725000	0.212039
	24.730000	0.221905
	24.735000	0.323856
	24.740000	0.320567
	24.745000	0.215328
	24.750000	0.218617
	24.755000	0.323856
	24.760000	0.317278
	24.765000	0.208751
	24.770000	0.218617
	24.775000	0.323856
	24.780000	0.317278
	24.785000	0.208751
	24.790000	0.218617
	24.795000	0.323856
	24.800000	0.313990
	24.805000	0.205462
	24.810000	0.218617
	24.815000	0.323856
	24.820000	0.317278
	24.825000	0.212039
	24.830000	0.218617
	24.835000	0.320567
	24.840000	0.313990
	24.845000	0.208751
	24.850000	0.218617
	24.855000	0.323856
	24.860000	0.307412
	24.865000	0.212039
	24.870000	0.218617
	24.875000	0.323856
	24.880000	0.310701
	24.885000	0.205462
	24.890000	0.215328
	24.895000	0.323856
	24.900000	0.310701
	24.905000	0.202173
	24.910000	0.221905
	24.915000	0.320567
	24.920000	0.307412
	24.925000	0.202173
	24.930000	0.218617
	24.935000	0.320567
	24.940000	0.310701
	24.945000	0.205462
	24.950000	0.218617
	24.955000	0.320567
	24.960000	0.307412
	24.965000	0.205462
	24.970000	0.218617
	24.975000	0.323856
	24.980000	0.313990
	24.985000	0.205462
	24.990000	0.221905
	24.995000	0.323856
	25.000000	0.313990
	25.005000	0.208751
	25.010000	0.221905
	25.015000	0.323856
	25.020000	0.310701
	25.025000	0.208751
	25.030000	0.221905
	25.035000	0.320567
	25.040000	0.310701
	25.045000	0.205462
	25.050000	0.221905
	25.055000	0.320567
	25.060000	0.310701
	25.065000	0.202173
	25.070000	0.218617
	25.075000	0.323856
	25.080000	0.307412
	25.085000	0.205462
	25.090000	0.218617
	25.095000	0.323856
	25.100000	0.307412
	25.105000	0.208751
	25.110000	0.218617
	25.115000	0.320567
	25.120000	0.310701
	25.125000	0.205462
	25.130000	0.218617
	25.135000	0.320567
	25.140000	0.304124
	25.145000	0.202173
	25.150000	0.221905
	25.155000	0.323856
	25.160000	0.304124
	25.165000	0.202173
	25.170000	0.218617
	25.175000	0.323856
	25.180000	0.304124
	25.185000	0.202173
	25.190000	0.218617
	25.195000	0.320567
	25.200000	0.304124
	25.205000	0.205462
	25.210000	0.218617
	25.215000	0.327145
	25.220000	0.304124
	25.225000	0.198884
	25.230000	0.218617
	25.235000	0.320567
	25.240000	0.300835
	25.245000	0.198884
	25.250000	0.221905
	25.255000	0.323856
	25.260000	0.300835
	25.265000	0.198884
	25.270000	0.218617
	25.275000	0.320567
	25.280000	0.300835
	25.285000	0.195596
	25.290000	0.221905
	25.295000	0.320567
	25.300000	0.300835
	25.305000	0.198884
	25.310000	0.218617
	25.315000	0.320567
	25.320000	0.304124
	25.325000	0.192307
	25.330000	0.225194
	25.335000	0.327145
	25.340000	0.300835
	25.345000	0.198884
	25.350000	0.221905
	25.355000	0.320567
	25.360000	0.297546
	25.365000	0.198884
	25.370000	0.215328
	25.375000	0.317278
	25.380000	0.300835
	25.385000	0.195596
	25.390000	0.218617
	25.395000	0.320567
	25.400000	0.297546
	25.405000	0.198884
	25.410000	0.218617
	25.415000	0.320567
	25.420000	0.300835
	25.425000	0.198884
	25.430000	0.221905
	25.435000	0.323856
	25.440000	0.300835
	25.445000	0.195596
	25.450000	0.221905
	25.455000	0.317278
	25.460000	0.300835
	25.465000	0.195596
	25.470000	0.221905
	25.475000	0.323856
	25.480000	0.297546
	25.485000	0.198884
	25.490000	0.221905
	25.495000	0.320567
	25.500000	0.297546
	25.505000	0.195596
	25.510000	0.215328
	25.515000	0.320567
	25.520000	0.294257
	25.525000	0.195596
	25.530000	0.221905
	25.535000	0.320567
	25.540000	0.297546
	25.545000	0.192307
	25.550000	0.221905
	25.555000	0.317278
	25.560000	0.294257
	25.565000	0.192307
	25.570000	0.218617
	25.575000	0.320567
	25.580000	0.294257
	25.585000	0.195596
	25.590000	0.221905
	25.595000	0.323856
	25.600000	0.297546
	25.605000	0.195596
	25.610000	0.221905
	25.615000	0.320567
	25.620000	0.294257
	25.625000	0.189018
	25.630000	0.225194
	25.635000	0.323856
	25.640000	0.290969
	25.645000	0.189018
	25.650000	0.218617
	25.655000	0.320567
	25.660000	0.297546
	25.665000	0.192307
	25.670000	0.221905
	25.675000	0.320567
	25.680000	0.294257
	25.685000	0.195596
	25.690000	0.221905
	25.695000	0.320567
	25.700000	0.294257
	25.705000	0.192307
	25.710000	0.225194
	25.715000	0.320567
	25.720000	0.294257
	25.725000	0.192307
	25.730000	0.218617
	25.735000	0.320567
	25.740000	0.290969
	25.745000	0.192307
	25.750000	0.221905
	25.755000	0.313990
	25.760000	0.290969
	25.765000	0.185730
	25.770000	0.221905
	25.775000	0.320567
	25.780000	0.290969
	25.785000	0.189018
	25.790000	0.221905
	25.795000	0.320567
	25.800000	0.287680
	25.805000	0.182441
	25.810000	0.218617
	25.815000	0.317278
	25.820000	0.284391
	25.825000	0.185730
	25.830000	0.215328
	25.835000	0.313990
	25.840000	0.281102
	25.845000	0.179152
	25.850000	0.212039
	25.855000	0.310701
	25.860000	0.274525
	25.865000	0.172575
	25.870000	0.202173
	25.875000	0.300835
	25.880000	0.261370
	25.885000	0.162708
	25.890000	0.185730
	25.895000	0.281102
	25.900000	0.254793
	25.905000	0.149554
	25.910000	0.182441
	25.915000	0.277814
	25.920000	0.244927
	25.925000	0.146265
	25.930000	0.172575
	25.935000	0.274525
	25.940000	0.235060
	25.945000	0.136399
	25.950000	0.175863
	25.955000	0.271236
	25.960000	0.241638
	25.965000	0.136399
	25.970000	0.172575
	25.975000	0.277814
	25.980000	0.241638
	25.985000	0.146265
	25.990000	0.182441
	25.995000	0.281102
	26.000000	0.248215
	26.005000	0.156131
	26.010000	0.189018
	26.015000	0.294257
	26.020000	0.261370
	26.025000	0.162708
	26.030000	0.202173
	26.035000	0.300835
	26.040000	0.267948
	26.045000	0.172575
	26.050000	0.208751
	26.055000	0.317278
	26.060000	0.287680
	26.065000	0.192307
	26.070000	0.235060
	26.075000	0.333722
	26.080000	0.297546
	26.085000	0.202173
	26.090000	0.235060
	26.095000	0.333722
	26.100000	0.297546
	26.105000	0.202173
	26.110000	0.235060
	26.115000	0.330433
	26.120000	0.297546
	26.125000	0.202173
	26.130000	0.235060
	26.135000	0.333722
	26.140000	0.290969
	26.145000	0.192307
	26.150000	0.235060
	26.155000	0.330433
	26.160000	0.294257
	26.165000	0.195596
	26.170000	0.235060
	26.175000	0.330433
	26.180000	0.294257
	26.185000	0.198884
	26.190000	0.235060
	26.195000	0.327145
	26.200000	0.287680
	26.205000	0.189018
	26.210000	0.231772
	26.215000	0.323856
	26.220000	0.287680
	26.225000	0.189018
	26.230000	0.231772
	26.235000	0.327145
	26.240000	0.284391
	26.245000	0.192307
	26.250000	0.228483
	26.255000	0.323856
	26.260000	0.284391
	26.265000	0.189018
	26.270000	0.231772
	26.275000	0.323856
	26.280000	0.284391
	26.285000	0.189018
	26.290000	0.228483
	26.295000	0.323856
	26.300000	0.281102
	26.305000	0.185730
	26.310000	0.228483
	26.315000	0.320567
	26.320000	0.281102
	26.325000	0.182441
	26.330000	0.225194
	26.335000	0.323856
	26.340000	0.277814
	26.345000	0.185730
	26.350000	0.228483
	26.355000	0.323856
	26.360000	0.277814
	26.365000	0.182441
	26.370000	0.225194
	26.375000	0.320567
	26.380000	0.281102
	26.385000	0.182441
	26.390000	0.225194
	26.395000	0.317278
	26.400000	0.277814
	26.405000	0.182441
	26.410000	0.225194
	26.415000	0.317278
	26.420000	0.277814
	26.425000	0.179152
	26.430000	0.225194
	26.435000	0.320567
	26.440000	0.277814
	26.445000	0.179152
	26.450000	0.225194
	26.455000	0.320567
	26.460000	0.274525
	26.465000	0.179152
	26.470000	0.228483
	26.475000	0.320567
	26.480000	0.274525
	26.485000	0.182441
	26.490000	0.225194
	26.495000	0.317278
	26.500000	0.274525
	26.505000	0.179152
	26.510000	0.231772
	26.515000	0.317278
	26.520000	0.277814
	26.525000	0.182441
	26.530000	0.228483
	26.535000	0.323856
	26.540000	0.277814
	26.545000	0.185730
	26.550000	0.228483
	26.555000	0.323856
	26.560000	0.277814
	26.565000	0.179152
	26.570000	0.228483
	26.575000	0.327145
	26.580000	0.274525
	26.585000	0.185730
	26.590000	0.228483
	26.595000	0.320567
	26.600000	0.277814
	26.605000	0.185730
	26.610000	0.228483
	26.615000	0.320567
	26.620000	0.274525
	26.625000	0.185730
	26.630000	0.231772
	26.635000	0.323856
	26.640000	0.274525
	26.645000	0.179152
	26.650000	0.228483
	26.655000	0.320567
	26.660000	0.274525
	26.665000	0.179152
	26.670000	0.228483
	26.675000	0.317278
	26.680000	0.274525
	26.685000	0.179152
	26.690000	0.228483
	26.695000	0.317278
	26.700000	0.274525
	26.705000	0.179152
	26.710000	0.228483
	26.715000	0.317278
	26.720000	0.274525
	26.725000	0.179152
	26.730000	0.225194
	26.735000	0.317278
	26.740000	0.267948
	26.745000	0.179152
	26.750000	0.228483
	26.755000	0.320567
	26.760000	0.267948
	26.765000	0.175863
	26.770000	0.228483
	26.775000	0.317278
	26.780000	0.264659
	26.785000	0.175863
	26.790000	0.228483
	26.795000	0.313990
	26.800000	0.267948
	26.805000	0.175863
	26.810000	0.228483
	26.815000	0.310701
	26.820000	0.264659
	26.825000	0.172575
	26.830000	0.221905
	26.835000	0.317278
	26.840000	0.261370
	26.845000	0.172575
	26.850000	0.221905
	26.855000	0.310701
	26.860000	0.261370
	26.865000	0.169286
	26.870000	0.215328
	26.875000	0.313990
	26.880000	0.258081
	26.885000	0.169286
	26.890000	0.215328
	26.895000	0.307412
	26.900000	0.254793
	26.905000	0.169286
	26.910000	0.215328
	26.915000	0.304124
	26.920000	0.248215
	26.925000	0.159420
	26.930000	0.208751
	26.935000	0.300835
	26.940000	0.238349
	26.945000	0.146265
	26.950000	0.202173
	26.955000	0.290969
	26.960000	0.235060
	26.965000	0.139687
	26.970000	0.195596
	26.975000	0.281102
	26.980000	0.225194
	26.985000	0.136399
	26.990000	0.192307
	26.995000	0.281102
	27.000000	0.221905
	27.005000	0.129821
	27.010000	0.182441
	27.015000	0.274525
	27.020000	0.215328
	27.025000	0.126533
	27.030000	0.182441
	27.035000	0.264659
	27.040000	0.212039
	27.045000	0.126533
	27.050000	0.175863
	27.055000	0.264659
	27.060000	0.205462
	27.065000	0.116666
	27.070000	0.175863
	27.075000	0.261370
	27.080000	0.202173
	27.085000	0.116666
	27.090000	0.172575
	27.095000	0.258081
	27.100000	0.202173
	27.105000	0.113378
	27.110000	0.169286
	27.115000	0.261370
	27.120000	0.198884
	27.125000	0.113378
	27.130000	0.172575
	27.135000	0.261370
	27.140000	0.205462
	27.145000	0.113378
	27.150000	0.175863
	27.155000	0.264659
	27.160000	0.205462
	27.165000	0.119955
	27.170000	0.182441
	27.175000	0.277814
	27.180000	0.221905
	27.185000	0.139687
	27.190000	0.205462
	27.195000	0.297546
	27.200000	0.244927
	27.205000	0.169286
	27.210000	0.235060
	27.215000	0.320567
	27.220000	0.274525
	27.225000	0.189018
	27.230000	0.251504
	27.235000	0.340299
	27.240000	0.284391
	27.245000	0.205462
	27.250000	0.261370
	27.255000	0.350166
	27.260000	0.287680
	27.265000	0.205462
	27.270000	0.267948
	27.275000	0.353454
	27.280000	0.290969
	27.285000	0.208751
	27.290000	0.261370
	27.295000	0.346877
	27.300000	0.284391
	27.305000	0.198884
	27.310000	0.258081
	27.315000	0.340299
	27.320000	0.281102
	27.325000	0.189018
	27.330000	0.254793
	27.335000	0.337011
	27.340000	0.274525
	27.345000	0.195596
	27.350000	0.248215
	27.355000	0.337011
	27.360000	0.274525
	27.365000	0.192307
	27.370000	0.248215
	27.375000	0.330433
	27.380000	0.274525
	27.385000	0.185730
	27.390000	0.248215
	27.395000	0.333722
	27.400000	0.267948
	27.405000	0.189018
	27.410000	0.251504
	27.415000	0.333722
	27.420000	0.267948
	27.425000	0.185730
	27.430000	0.248215
	27.435000	0.330433
	27.440000	0.267948
	27.445000	0.185730
	27.450000	0.244927
	27.455000	0.327145
	27.460000	0.264659
	27.465000	0.182441
	27.470000	0.241638
	27.475000	0.330433
	27.480000	0.261370
	27.485000	0.179152
	27.490000	0.244927
	27.495000	0.327145
	27.500000	0.261370
	27.505000	0.175863
	27.510000	0.241638
	27.515000	0.323856
	27.520000	0.258081
	27.525000	0.179152
	27.530000	0.241638
	27.535000	0.330433
	27.540000	0.261370
	27.545000	0.175863
	27.550000	0.241638
	27.555000	0.323856
	27.560000	0.258081
	27.565000	0.172575
	27.570000	0.241638
	27.575000	0.320567
	27.580000	0.254793
	27.585000	0.172575
	27.590000	0.238349
	27.595000	0.323856
	27.600000	0.254793
	27.605000	0.172575
	27.610000	0.235060
	27.615000	0.320567
	27.620000	0.254793
	27.625000	0.172575
	27.630000	0.235060
	27.635000	0.317278
	27.640000	0.248215
	27.645000	0.172575
	27.650000	0.235060
	27.655000	0.317278
	27.660000	0.254793
	27.665000	0.172575
	27.670000	0.238349
	27.675000	0.317278
	27.680000	0.248215
	27.685000	0.169286
	27.690000	0.238349
	27.695000	0.317278
	27.700000	0.251504
	27.705000	0.169286
	27.710000	0.238349
	27.715000	0.317278
	27.720000	0.248215
	27.725000	0.169286
	27.730000	0.235060
	27.735000	0.320567
	27.740000	0.248215
	27.745000	0.169286
	27.750000	0.238349
	27.755000	0.317278
	27.760000	0.248215
	27.765000	0.169286
	27.770000	0.238349
	27.775000	0.317278
	27.780000	0.248215
	27.785000	0.172575
	27.790000	0.235060
	27.795000	0.313990
	27.800000	0.248215
	27.805000	0.169286
	27.810000	0.238349
	27.815000	0.317278
	27.820000	0.244927
	27.825000	0.162708
	27.830000	0.235060
	27.835000	0.310701
	27.840000	0.244927
	27.845000	0.169286
	27.850000	0.238349
	27.855000	0.310701
	27.860000	0.244927
	27.865000	0.165997
	27.870000	0.238349
	27.875000	0.310701
	27.880000	0.248215
	27.885000	0.169286
	27.890000	0.235060
	27.895000	0.310701
	27.900000	0.238349
	27.905000	0.165997
	27.910000	0.235060
	27.915000	0.307412
	27.920000	0.235060
	27.925000	0.165997
	27.930000	0.238349
	27.935000	0.307412
	27.940000	0.241638
	27.945000	0.159420
	27.950000	0.235060
	27.955000	0.307412
	27.960000	0.241638
	27.965000	0.159420
	27.970000	0.235060
	27.975000	0.310701
	27.980000	0.238349
	27.985000	0.162708
	27.990000	0.235060
	27.995000	0.307412
	28.000000	0.238349
	28.005000	0.162708
	28.010000	0.231772
	28.015000	0.307412
	28.020000	0.241638
	28.025000	0.162708
	28.030000	0.235060
	28.035000	0.307412
	28.040000	0.235060
	28.045000	0.159420
	28.050000	0.235060
	28.055000	0.304124
	28.060000	0.228483
	28.065000	0.149554
	28.070000	0.218617
	28.075000	0.287680
	28.080000	0.205462
	28.085000	0.133110
	28.090000	0.195596
	28.095000	0.267948
	28.100000	0.182441
	28.105000	0.106800
	28.110000	0.179152
	28.115000	0.254793
	28.120000	0.182441
	28.125000	0.106800
	28.130000	0.179152
	28.135000	0.248215
	28.140000	0.175863
	28.145000	0.100223
	28.150000	0.172575
	28.155000	0.251504
	28.160000	0.172575
	28.165000	0.100223
	28.170000	0.175863
	28.175000	0.248215
	28.180000	0.172575
	28.185000	0.096934
	28.190000	0.175863
	28.195000	0.248215
	28.200000	0.175863
	28.205000	0.096934
	28.210000	0.175863
	28.215000	0.248215
	28.220000	0.169286
	28.225000	0.096934
	28.230000	0.175863
	28.235000	0.251504
	28.240000	0.175863
	28.245000	0.106800
	28.250000	0.189018
	28.255000	0.264659
	28.260000	0.195596
	28.265000	0.133110
	28.270000	0.218617
	28.275000	0.297546
	28.280000	0.228483
	28.285000	0.165997
	28.290000	0.248215
	28.295000	0.327145
	28.300000	0.258081
	28.305000	0.195596
	28.310000	0.271236
	28.315000	0.343588
	28.320000	0.267948
	28.325000	0.195596
	28.330000	0.277814
	28.335000	0.346877
	28.340000	0.267948
	28.345000	0.198884
	28.350000	0.274525
	28.355000	0.340299
	28.360000	0.267948
	28.365000	0.198884
	28.370000	0.271236
	28.375000	0.337011
	28.380000	0.258081
	28.385000	0.192307
	28.390000	0.267948
	28.395000	0.340299
	28.400000	0.261370
	28.405000	0.189018
	28.410000	0.267948
	28.415000	0.333722
	28.420000	0.258081
	28.425000	0.189018
	28.430000	0.261370
	28.435000	0.337011
	28.440000	0.251504
	28.445000	0.185730
	28.450000	0.261370
	28.455000	0.327145
	28.460000	0.248215
	28.465000	0.179152
	28.470000	0.258081
	28.475000	0.330433
	28.480000	0.244927
	28.485000	0.179152
	28.490000	0.254793
	28.495000	0.327145
	28.500000	0.244927
	28.505000	0.175863
	28.510000	0.258081
	28.515000	0.323856
	28.520000	0.241638
	28.525000	0.175863
	28.530000	0.254793
	28.535000	0.327145
	28.540000	0.241638
	28.545000	0.172575
	28.550000	0.254793
	28.555000	0.323856
	28.560000	0.241638
	28.565000	0.175863
	28.570000	0.258081
	28.575000	0.320567
	28.580000	0.241638
	28.585000	0.169286
	28.590000	0.258081
	28.595000	0.323856
	28.600000	0.238349
	28.605000	0.175863
	28.610000	0.254793
	28.615000	0.323856
	28.620000	0.241638
	28.625000	0.172575
	28.630000	0.251504
	28.635000	0.317278
	28.640000	0.238349
	28.645000	0.172575
	28.650000	0.254793
	28.655000	0.320567
	28.660000	0.235060
	28.665000	0.172575
	28.670000	0.254793
	28.675000	0.317278
	28.680000	0.235060
	28.685000	0.172575
	28.690000	0.251504
	28.695000	0.320567
	28.700000	0.235060
	28.705000	0.175863
	28.710000	0.254793
	28.715000	0.323856
	28.720000	0.235060
	28.725000	0.172575
	28.730000	0.254793
	28.735000	0.323856
	28.740000	0.235060
	28.745000	0.172575
	28.750000	0.254793
	28.755000	0.317278
	28.760000	0.235060
	28.765000	0.175863
	28.770000	0.258081
	28.775000	0.323856
	28.780000	0.241638
	28.785000	0.175863
	28.790000	0.254793
	28.795000	0.320567
	28.800000	0.241638
	28.805000	0.179152
	28.810000	0.258081
	28.815000	0.327145
	28.820000	0.244927
	28.825000	0.182441
	28.830000	0.264659
	28.835000	0.327145
	28.840000	0.238349
	28.845000	0.179152
	28.850000	0.264659
	28.855000	0.330433
	28.860000	0.241638
	28.865000	0.185730
	28.870000	0.274525
	28.875000	0.330433
	28.880000	0.241638
	28.885000	0.185730
	28.890000	0.271236
	28.895000	0.330433
	28.900000	0.248215
	28.905000	0.189018
	28.910000	0.274525
	28.915000	0.330433
	28.920000	0.251504
	28.925000	0.185730
	28.930000	0.274525
	28.935000	0.327145
	28.940000	0.241638
	28.945000	0.185730
	28.950000	0.271236
	28.955000	0.323856
	28.960000	0.241638
	28.965000	0.182441
	28.970000	0.271236
	28.975000	0.327145
	28.980000	0.241638
	28.985000	0.182441
	28.990000	0.264659
	28.995000	0.327145
	29.000000	0.241638
	29.005000	0.179152
	29.010000	0.264659
	29.015000	0.323856
	29.020000	0.238349
	29.025000	0.182441
	29.030000	0.264659
	29.035000	0.320567
	29.040000	0.235060
	29.045000	0.175863
	29.050000	0.261370
	29.055000	0.320567
	29.060000	0.228483
	29.065000	0.172575
	29.070000	0.258081
	29.075000	0.313990
	29.080000	0.225194
	29.085000	0.162708
	29.090000	0.251504
	29.095000	0.304124
	29.100000	0.212039
	29.105000	0.159420
	29.110000	0.244927
	29.115000	0.297546
	29.120000	0.208751
	29.125000	0.149554
	29.130000	0.235060
	29.135000	0.284391
	29.140000	0.195596
	29.145000	0.139687
	29.150000	0.221905
	29.155000	0.274525
	29.160000	0.185730
	29.165000	0.129821
	29.170000	0.218617
	29.175000	0.271236
	29.180000	0.182441
	29.185000	0.123244
	29.190000	0.215328
	29.195000	0.267948
	29.200000	0.179152
	29.205000	0.126533
	29.210000	0.212039
	29.215000	0.264659
	29.220000	0.175863
	29.225000	0.126533
	29.230000	0.218617
	29.235000	0.267948
	29.240000	0.182441
	29.245000	0.129821
	29.250000	0.221905
	29.255000	0.277814
	29.260000	0.189018
	29.265000	0.139687
	29.270000	0.235060
	29.275000	0.294257
	29.280000	0.212039
	29.285000	0.159420
	29.290000	0.251504
	29.295000	0.313990
	29.300000	0.228483
	29.305000	0.179152
	29.310000	0.264659
	29.315000	0.317278
	29.320000	0.231772
	29.325000	0.182441
	29.330000	0.271236
	29.335000	0.330433
	29.340000	0.238349
	29.345000	0.189018
	29.350000	0.277814
	29.355000	0.337011
	29.360000	0.251504
	29.365000	0.198884
	29.370000	0.290969
	29.375000	0.346877
	29.380000	0.261370
	29.385000	0.212039
	29.390000	0.300835
	29.395000	0.346877
	29.400000	0.254793
	29.405000	0.212039
	29.410000	0.294257
	29.415000	0.343588
	29.420000	0.254793
	29.425000	0.202173
	29.430000	0.290969
	29.435000	0.337011
	29.440000	0.251504
	29.445000	0.195596
	29.450000	0.284391
	29.455000	0.333722
	29.460000	0.244927
	29.465000	0.195596
	29.470000	0.290969
	29.475000	0.337011
	29.480000	0.241638
	29.485000	0.192307
	29.490000	0.287680
	29.495000	0.333722
	29.500000	0.238349
	29.505000	0.192307
	29.510000	0.281102
	29.515000	0.330433
	29.520000	0.231772
	29.525000	0.185730
	29.530000	0.274525
	29.535000	0.320567
	29.540000	0.231772
	29.545000	0.189018
	29.550000	0.277814
	29.555000	0.327145
	29.560000	0.231772
	29.565000	0.182441
	29.570000	0.274525
	29.575000	0.323856
	29.580000	0.228483
	29.585000	0.182441
	29.590000	0.271236
	29.595000	0.317278
	29.600000	0.225194
	29.605000	0.179152
	29.610000	0.274525
	29.615000	0.317278
	29.620000	0.228483
	29.625000	0.179152
	29.630000	0.274525
	29.635000	0.320567
	29.640000	0.228483
	29.645000	0.179152
	29.650000	0.274525
	29.655000	0.317278
	29.660000	0.231772
	29.665000	0.182441
	29.670000	0.274525
	29.675000	0.317278
	29.680000	0.221905
	29.685000	0.179152
	29.690000	0.274525
	29.695000	0.317278
	29.700000	0.225194
	29.705000	0.179152
	29.710000	0.274525
	29.715000	0.317278
	29.720000	0.221905
	29.725000	0.179152
	29.730000	0.267948
	29.735000	0.313990
	29.740000	0.221905
	29.745000	0.175863
	29.750000	0.264659
	29.755000	0.313990
	29.760000	0.218617
	29.765000	0.172575
	29.770000	0.267948
	29.775000	0.313990
	29.780000	0.218617
	29.785000	0.175863
	29.790000	0.267948
	29.795000	0.310701
	29.800000	0.218617
	29.805000	0.175863
	29.810000	0.271236
	29.815000	0.313990
	29.820000	0.218617
	29.825000	0.175863
	29.830000	0.267948
	29.835000	0.310701
	29.840000	0.218617
	29.845000	0.175863
	29.850000	0.274525
	29.855000	0.313990
	29.860000	0.218617
	29.865000	0.172575
	29.870000	0.274525
	29.875000	0.307412
	29.880000	0.221905
	29.885000	0.175863
	29.890000	0.274525
	29.895000	0.317278
	29.900000	0.218617
	29.905000	0.172575
	29.910000	0.271236
	29.915000	0.313990
	29.920000	0.218617
	29.925000	0.175863
	29.930000	0.274525
	29.935000	0.310701
	29.940000	0.221905
	29.945000	0.175863
	29.950000	0.271236
	29.955000	0.313990
	29.960000	0.215328
	29.965000	0.175863
	29.970000	0.274525
	29.975000	0.310701
	29.980000	0.218617
	29.985000	0.172575
	29.990000	0.274525
	29.995000	0.313990
	30.000000	0.221905
	30.005000	0.172575
	30.010000	0.274525
	30.015000	0.310701
	30.020000	0.212039
	30.025000	0.175863
	30.030000	0.271236
	30.035000	0.313990
	30.040000	0.218617
	30.045000	0.179152
	30.050000	0.267948
	30.055000	0.313990
	30.060000	0.215328
	30.065000	0.182441
	30.070000	0.271236
	30.075000	0.310701
	30.080000	0.212039
	30.085000	0.175863
	30.090000	0.274525
	30.095000	0.310701
	30.100000	0.215328
	30.105000	0.175863
	30.110000	0.271236
	30.115000	0.313990
	30.120000	0.215328
	30.125000	0.175863
	30.130000	0.274525
	30.135000	0.313990
	30.140000	0.215328
	30.145000	0.182441
	30.150000	0.274525
	30.155000	0.310701
	30.160000	0.215328
	30.165000	0.179152
	30.170000	0.271236
	30.175000	0.317278
	30.180000	0.212039
	30.185000	0.179152
	30.190000	0.274525
	30.195000	0.307412
	30.200000	0.212039
	30.205000	0.179152
	30.210000	0.274525
	30.215000	0.304124
	30.220000	0.208751
	30.225000	0.175863
	30.230000	0.267948
	30.235000	0.307412
	30.240000	0.208751
	30.245000	0.175863
	30.250000	0.274525
	30.255000	0.304124
	30.260000	0.208751
	30.265000	0.172575
	30.270000	0.274525
	30.275000	0.304124
	30.280000	0.205462
	30.285000	0.169286
	30.290000	0.267948
	30.295000	0.300835
	30.300000	0.202173
	30.305000	0.169286
	30.310000	0.267948
	30.315000	0.300835
	30.320000	0.202173
	30.325000	0.169286
	30.330000	0.271236
	30.335000	0.300835
	30.340000	0.198884
	30.345000	0.169286
	30.350000	0.261370
	30.355000	0.300835
	30.360000	0.198884
	30.365000	0.169286
	30.370000	0.267948
	30.375000	0.294257
	30.380000	0.195596
	30.385000	0.162708
	30.390000	0.264659
	30.395000	0.294257
	30.400000	0.195596
	30.405000	0.159420
	30.410000	0.261370
	30.415000	0.290969
	30.420000	0.192307
	30.425000	0.156131
	30.430000	0.254793
	30.435000	0.284391
	30.440000	0.179152
	30.445000	0.152842
	30.450000	0.241638
	30.455000	0.271236
	30.460000	0.162708
	30.465000	0.133110
	30.470000	0.231772
	30.475000	0.251504
	30.480000	0.149554
	30.485000	0.113378
	30.490000	0.212039
	30.495000	0.238349
	30.500000	0.136399
	30.505000	0.106800
	30.510000	0.205462
	30.515000	0.231772
	30.520000	0.129821
	30.525000	0.103511
	30.530000	0.198884
	30.535000	0.228483
	30.540000	0.123244
	30.545000	0.100223
	30.550000	0.195596
	30.555000	0.225194
	30.560000	0.123244
	30.565000	0.090357
	30.570000	0.195596
	30.575000	0.225194
	30.580000	0.126533
	30.585000	0.096934
	30.590000	0.198884
	30.595000	0.228483
	30.600000	0.133110
	30.605000	0.103511
	30.610000	0.208751
	30.615000	0.235060
	30.620000	0.142976
	30.625000	0.116666
	30.630000	0.221905
	30.635000	0.254793
	30.640000	0.162708
	30.645000	0.139687
	30.650000	0.251504
	30.655000	0.281102
	30.660000	0.189018
	30.665000	0.169286
	30.670000	0.274525
	30.675000	0.304124
	30.680000	0.208751
	30.685000	0.189018
	30.690000	0.287680
	30.695000	0.317278
	30.700000	0.218617
	30.705000	0.195596
	30.710000	0.294257
	30.715000	0.327145
	30.720000	0.221905
	30.725000	0.198884
	30.730000	0.297546
	30.735000	0.327145
	30.740000	0.221905
	30.745000	0.205462
	30.750000	0.304124
	30.755000	0.327145
	30.760000	0.221905
	30.765000	0.205462
	30.770000	0.307412
	30.775000	0.330433
	30.780000	0.225194
	30.785000	0.208751
	30.790000	0.304124
	30.795000	0.330433
	30.800000	0.228483
	30.805000	0.202173
	30.810000	0.300835
	30.815000	0.323856
	30.820000	0.221905
	30.825000	0.195596
	30.830000	0.294257
	30.835000	0.317278
	30.840000	0.208751
	30.845000	0.189018
	30.850000	0.287680
	30.855000	0.307412
	30.860000	0.205462
	30.865000	0.185730
	30.870000	0.281102
	30.875000	0.307412
	30.880000	0.202173
	30.885000	0.175863
	30.890000	0.284391
	30.895000	0.304124
	30.900000	0.202173
	30.905000	0.182441
	30.910000	0.287680
	30.915000	0.304124
	30.920000	0.205462
	30.925000	0.179152
	30.930000	0.284391
	30.935000	0.304124
	30.940000	0.202173
	30.945000	0.182441
	30.950000	0.281102
	30.955000	0.300835
	30.960000	0.202173
	30.965000	0.179152
	30.970000	0.284391
	30.975000	0.304124
	30.980000	0.198884
	30.985000	0.182441
	30.990000	0.281102
	30.995000	0.300835
	31.000000	0.198884
	31.005000	0.179152
	31.010000	0.284391
	31.015000	0.300835
	31.020000	0.198884
	31.025000	0.175863
	31.030000	0.277814
	31.035000	0.294257
	31.040000	0.192307
	31.045000	0.175863
	31.050000	0.274525
	31.055000	0.290969
	31.060000	0.192307
	31.065000	0.169286
	31.070000	0.274525
	31.075000	0.294257
	31.080000	0.189018
	31.085000	0.169286
	31.090000	0.267948
	31.095000	0.290969
	31.100000	0.185730
	31.105000	0.169286
	31.110000	0.271236
	31.115000	0.284391
	31.120000	0.179152
	31.125000	0.162708
	31.130000	0.267948
	31.135000	0.284391
	31.140000	0.175863
	31.145000	0.162708
	31.150000	0.267948
	31.155000	0.284391
	31.160000	0.175863
	31.165000	0.159420
	31.170000	0.264659
	31.175000	0.277814
	31.180000	0.179152
	31.185000	0.162708
	31.190000	0.267948
	31.195000	0.277814
	31.200000	0.175863
	31.205000	0.162708
	31.210000	0.264659
	31.215000	0.277814
	31.220000	0.175863
	31.225000	0.162708
	31.230000	0.264659
	31.235000	0.281102
	31.240000	0.175863
	31.245000	0.159420
	31.250000	0.264659
	31.255000	0.274525
	31.260000	0.172575
	31.265000	0.162708
	31.270000	0.264659
	31.275000	0.274525
	31.280000	0.175863
	31.285000	0.159420
	31.290000	0.264659
	31.295000	0.274525
	31.300000	0.169286
	31.305000	0.156131
	31.310000	0.261370
	31.315000	0.274525
	31.320000	0.169286
	31.325000	0.159420
	31.330000	0.261370
	31.335000	0.277814
	31.340000	0.172575
	31.345000	0.159420
	31.350000	0.261370
	31.355000	0.274525
	31.360000	0.169286
	31.365000	0.159420
	31.370000	0.261370
	31.375000	0.271236
	31.380000	0.169286
	31.385000	0.159420
	31.390000	0.261370
	31.395000	0.274525
	31.400000	0.169286
	31.405000	0.159420
	31.410000	0.264659
	31.415000	0.271236
	31.420000	0.165997
	31.425000	0.156131
	31.430000	0.261370
	31.435000	0.274525
	31.440000	0.169286
	31.445000	0.156131
	31.450000	0.254793
	31.455000	0.271236
	31.460000	0.169286
	31.465000	0.159420
	31.470000	0.264659
	31.475000	0.264659
	31.480000	0.165997
	31.485000	0.162708
	31.490000	0.264659
	31.495000	0.274525
	31.500000	0.169286
	31.505000	0.156131
	31.510000	0.264659
	31.515000	0.274525
	31.520000	0.165997
	31.525000	0.162708
	31.530000	0.267948
	31.535000	0.274525
	31.540000	0.165997
	31.545000	0.162708
	31.550000	0.267948
	31.555000	0.277814
	31.560000	0.172575
	31.565000	0.162708
	31.570000	0.264659
	31.575000	0.271236
	31.580000	0.165997
	31.585000	0.156131
	31.590000	0.261370
	31.595000	0.264659
	31.600000	0.156131
	31.605000	0.142976
	31.610000	0.241638
	31.615000	0.251504
	31.620000	0.142976
	31.625000	0.139687
	31.630000	0.238349
	31.635000	0.241638
	31.640000	0.136399
	31.645000	0.123244
	31.650000	0.235060
	31.655000	0.235060
	31.660000	0.126533
	31.665000	0.123244
	31.670000	0.225194
	31.675000	0.231772
	31.680000	0.119955
	31.685000	0.123244
	31.690000	0.221905
	31.695000	0.228483
	31.700000	0.123244
	31.705000	0.119955
	31.710000	0.221905
	31.715000	0.225194
	31.720000	0.119955
	31.725000	0.119955
	31.730000	0.221905
	31.735000	0.225194
	31.740000	0.119955
	31.745000	0.119955
	31.750000	0.228483
	31.755000	0.231772
	31.760000	0.126533
	31.765000	0.123244
	31.770000	0.228483
	31.775000	0.235060
	31.780000	0.129821
	31.785000	0.129821
	31.790000	0.235060
	31.795000	0.238349
	31.800000	0.133110
	31.805000	0.136399
	31.810000	0.241638
	31.815000	0.248215
	31.820000	0.156131
	31.825000	0.149554
	31.830000	0.258081
	31.835000	0.261370
	31.840000	0.159420
	31.845000	0.162708
	31.850000	0.267948
	31.855000	0.271236
	31.860000	0.169286
	31.865000	0.162708
	31.870000	0.267948
	31.875000	0.274525
	31.880000	0.169286
	31.885000	0.169286
	31.890000	0.277814
	31.895000	0.277814
	31.900000	0.172575
	31.905000	0.169286
	31.910000	0.281102
	31.915000	0.277814
	31.920000	0.175863
	31.925000	0.172575
	31.930000	0.277814
	31.935000	0.281102
	31.940000	0.169286
	31.945000	0.175863
	31.950000	0.277814
	31.955000	0.277814
	31.960000	0.169286
	31.965000	0.172575
	31.970000	0.274525
	31.975000	0.267948
	31.980000	0.165997
	31.985000	0.162708
	31.990000	0.267948
	31.995000	0.267948
	32.000000	0.165997
	32.005000	0.165997
	32.010000	0.271236
	32.015000	0.264659
	32.020000	0.165997
	32.025000	0.162708
	32.030000	0.267948
	32.035000	0.264659
	32.040000	0.162708
	32.045000	0.165997
	32.050000	0.267948
	32.055000	0.261370
	32.060000	0.159420
	32.065000	0.165997
	32.070000	0.271236
	32.075000	0.267948
	32.080000	0.165997
	32.085000	0.172575
	32.090000	0.271236
	32.095000	0.261370
	32.100000	0.159420
	32.105000	0.169286
	32.110000	0.267948
	32.115000	0.264659
	32.120000	0.159420
	32.125000	0.169286
	32.130000	0.267948
	32.135000	0.267948
	32.140000	0.159420
	32.145000	0.162708
	32.150000	0.274525
	32.155000	0.264659
	32.160000	0.162708
	32.165000	0.169286
	32.170000	0.271236
	32.175000	0.267948
	32.180000	0.159420
	32.185000	0.169286
	32.190000	0.271236
	32.195000	0.267948
	32.200000	0.162708
	32.205000	0.165997
	32.210000	0.271236
	32.215000	0.261370
	32.220000	0.162708
	32.225000	0.169286
	32.230000	0.274525
	32.235000	0.264659
	32.240000	0.159420
	32.245000	0.165997
	32.250000	0.271236
	32.255000	0.264659
	32.260000	0.162708
	32.265000	0.169286
	32.270000	0.277814
	32.275000	0.267948
	32.280000	0.159420
	32.285000	0.172575
	32.290000	0.267948
	32.295000	0.261370
	32.300000	0.159420
	32.305000	0.165997
	32.310000	0.267948
	32.315000	0.258081
	32.320000	0.165997
	32.325000	0.165997
	32.330000	0.274525
	32.335000	0.267948
	32.340000	0.159420
	32.345000	0.169286
	32.350000	0.277814
	32.355000	0.261370
	32.360000	0.162708
	32.365000	0.169286
	32.370000	0.274525
	32.375000	0.264659
	32.380000	0.162708
	32.385000	0.175863
	32.390000	0.274525
	32.395000	0.271236
	32.400000	0.165997
	32.405000	0.175863
	32.410000	0.281102
	32.415000	0.264659
	32.420000	0.165997
	32.425000	0.179152
	32.430000	0.281102
	32.435000	0.274525
	32.440000	0.169286
	32.445000	0.175863
	32.450000	0.281102
	32.455000	0.271236
	32.460000	0.165997
	32.465000	0.175863
	32.470000	0.281102
	32.475000	0.267948
	32.480000	0.169286
	32.485000	0.182441
	32.490000	0.284391
	32.495000	0.271236
	32.500000	0.169286
	32.505000	0.182441
	32.510000	0.281102
	32.515000	0.274525
	32.520000	0.169286
	32.525000	0.179152
	32.530000	0.281102
	32.535000	0.271236
	32.540000	0.169286
	32.545000	0.182441
	32.550000	0.284391
	32.555000	0.274525
	32.560000	0.165997
