2024/7/11 	 14:59:05 
 This file comes from Vt only measurement 	 1.000000E-1 
 Voltage Sensitivity 	 0.000000E+0 
 Sampling rate 	 200 
 Number of samples per channel 	 -1 
 No filter from Labview 	 	 	 
 	 
 ***End_of_Header*** 
 	 Time 	  Voltage 	 Filtered Voltage 	 
	0.000000	0.058271
	0.005000	0.119515
	0.010000	0.071165
	0.015000	0.000251
	0.020000	0.061495
	0.025000	0.129185
	0.030000	0.064718
	0.035000	0.003474
	0.040000	0.055048
	0.045000	0.132408
	0.050000	0.077611
	0.055000	0.003474
	0.060000	0.058271
	0.065000	0.125962
	0.070000	0.080835
	0.075000	0.000251
	0.080000	0.061495
	0.085000	0.132408
	0.090000	0.080835
	0.095000	0.006697
	0.100000	0.058271
	0.105000	0.132408
	0.110000	0.077611
	0.115000	0.006697
	0.120000	0.058271
	0.125000	0.132408
	0.130000	0.074388
	0.135000	0.000251
	0.140000	0.061495
	0.145000	0.135632
	0.150000	0.074388
	0.155000	0.013144
	0.160000	0.064718
	0.165000	0.132408
	0.170000	0.071165
	0.175000	0.006697
	0.180000	0.061495
	0.185000	0.129185
	0.190000	0.077611
	0.195000	0.003474
	0.200000	0.051825
	0.205000	0.135632
	0.210000	0.071165
	0.215000	0.013144
	0.220000	0.061495
	0.225000	0.132408
	0.230000	0.084058
	0.235000	0.003474
	0.240000	0.061495
	0.245000	0.135632
	0.250000	0.077611
	0.255000	0.006697
	0.260000	0.064718
	0.265000	0.132408
	0.270000	0.080835
	0.275000	0.009921
	0.280000	0.061495
	0.285000	0.135632
	0.290000	0.080835
	0.295000	0.013144
	0.300000	0.064718
	0.305000	0.135632
	0.310000	0.080835
	0.315000	0.003474
	0.320000	0.067941
	0.325000	0.135632
	0.330000	0.080835
	0.335000	0.006697
	0.340000	0.061495
	0.345000	0.142079
	0.350000	0.084058
	0.355000	0.013144
	0.360000	0.061495
	0.365000	0.132408
	0.370000	0.084058
	0.375000	0.006697
	0.380000	0.061495
	0.385000	0.138855
	0.390000	0.084058
	0.395000	0.013144
	0.400000	0.061495
	0.405000	0.135632
	0.410000	0.084058
	0.415000	0.009921
	0.420000	0.067941
	0.425000	0.138855
	0.430000	0.084058
	0.435000	0.019591
	0.440000	0.071165
	0.445000	0.135632
	0.450000	0.080835
	0.455000	0.016368
	0.460000	0.067941
	0.465000	0.138855
	0.470000	0.084058
	0.475000	0.016368
	0.480000	0.067941
	0.485000	0.142079
	0.490000	0.084058
	0.495000	0.013144
	0.500000	0.067941
	0.505000	0.138855
	0.510000	0.090505
	0.515000	0.019591
	0.520000	0.064718
	0.525000	0.135632
	0.530000	0.090505
	0.535000	0.013144
	0.540000	0.067941
	0.545000	0.138855
	0.550000	0.087281
	0.555000	0.013144
	0.560000	0.064718
	0.565000	0.135632
	0.570000	0.084058
	0.575000	0.019591
	0.580000	0.064718
	0.585000	0.142079
	0.590000	0.084058
	0.595000	0.016368
	0.600000	0.064718
	0.605000	0.138855
	0.610000	0.087281
	0.615000	0.019591
	0.620000	0.071165
	0.625000	0.138855
	0.630000	0.087281
	0.635000	0.016368
	0.640000	0.071165
	0.645000	0.142079
	0.650000	0.087281
	0.655000	0.013144
	0.660000	0.067941
	0.665000	0.142079
	0.670000	0.090505
	0.675000	0.022814
	0.680000	0.067941
	0.685000	0.145302
	0.690000	0.090505
	0.695000	0.016368
	0.700000	0.067941
	0.705000	0.142079
	0.710000	0.090505
	0.715000	0.022814
	0.720000	0.071165
	0.725000	0.142079
	0.730000	0.096952
	0.735000	0.016368
	0.740000	0.077611
	0.745000	0.145302
	0.750000	0.093728
	0.755000	0.016368
	0.760000	0.074388
	0.765000	0.148525
	0.770000	0.096952
	0.775000	0.016368
	0.780000	0.074388
	0.785000	0.145302
	0.790000	0.096952
	0.795000	0.022814
	0.800000	0.071165
	0.805000	0.145302
	0.810000	0.100175
	0.815000	0.022814
	0.820000	0.074388
	0.825000	0.145302
	0.830000	0.090505
	0.835000	0.019591
	0.840000	0.074388
	0.845000	0.148525
	0.850000	0.093728
	0.855000	0.019591
	0.860000	0.067941
	0.865000	0.142079
	0.870000	0.093728
	0.875000	0.026038
	0.880000	0.071165
	0.885000	0.148525
	0.890000	0.100175
	0.895000	0.029261
	0.900000	0.071165
	0.905000	0.142079
	0.910000	0.090505
	0.915000	0.026038
	0.920000	0.071165
	0.925000	0.145302
	0.930000	0.096952
	0.935000	0.019591
	0.940000	0.071165
	0.945000	0.148525
	0.950000	0.096952
	0.955000	0.013144
	0.960000	0.071165
	0.965000	0.148525
	0.970000	0.103398
	0.975000	0.032484
	0.980000	0.087281
	0.985000	0.167865
	0.990000	0.122738
	0.995000	0.055048
	1.000000	0.116292
	1.005000	0.187206
	1.010000	0.145302
	1.015000	0.084058
	1.020000	0.135632
	1.025000	0.209769
	1.030000	0.177536
	1.035000	0.106622
	1.040000	0.161419
	1.045000	0.232333
	1.050000	0.180759
	1.055000	0.119515
	1.060000	0.174312
	1.065000	0.251673
	1.070000	0.200099
	1.075000	0.122738
	1.080000	0.174312
	1.085000	0.261343
	1.090000	0.206546
	1.095000	0.142079
	1.100000	0.196876
	1.105000	0.264566
	1.110000	0.212992
	1.115000	0.138855
	1.120000	0.193652
	1.125000	0.264566
	1.130000	0.216216
	1.135000	0.142079
	1.140000	0.196876
	1.145000	0.264566
	1.150000	0.219439
	1.155000	0.145302
	1.160000	0.196876
	1.165000	0.267790
	1.170000	0.219439
	1.175000	0.142079
	1.180000	0.187206
	1.185000	0.264566
	1.190000	0.212992
	1.195000	0.142079
	1.200000	0.190429
	1.205000	0.264566
	1.210000	0.216216
	1.215000	0.142079
	1.220000	0.187206
	1.225000	0.261343
	1.230000	0.216216
	1.235000	0.145302
	1.240000	0.190429
	1.245000	0.258119
	1.250000	0.209769
	1.255000	0.148525
	1.260000	0.187206
	1.265000	0.254896
	1.270000	0.212992
	1.275000	0.142079
	1.280000	0.187206
	1.285000	0.258119
	1.290000	0.209769
	1.295000	0.138855
	1.300000	0.187206
	1.305000	0.254896
	1.310000	0.212992
	1.315000	0.138855
	1.320000	0.180759
	1.325000	0.258119
	1.330000	0.212992
	1.335000	0.138855
	1.340000	0.180759
	1.345000	0.261343
	1.350000	0.206546
	1.355000	0.132408
	1.360000	0.187206
	1.365000	0.251673
	1.370000	0.209769
	1.375000	0.132408
	1.380000	0.180759
	1.385000	0.251673
	1.390000	0.206546
	1.395000	0.125962
	1.400000	0.174312
	1.405000	0.248449
	1.410000	0.200099
	1.415000	0.119515
	1.420000	0.167865
	1.425000	0.235556
	1.430000	0.190429
	1.435000	0.106622
	1.440000	0.154972
	1.445000	0.225886
	1.450000	0.180759
	1.455000	0.096952
	1.460000	0.145302
	1.465000	0.206546
	1.470000	0.161419
	1.475000	0.077611
	1.480000	0.129185
	1.485000	0.200099
	1.490000	0.145302
	1.495000	0.067941
	1.500000	0.109845
	1.505000	0.180759
	1.510000	0.135632
	1.515000	0.048601
	1.520000	0.096952
	1.525000	0.161419
	1.530000	0.113068
	1.535000	0.035708
	1.540000	0.080835
	1.545000	0.148525
	1.550000	0.103398
	1.555000	0.026038
	1.560000	0.064718
	1.565000	0.132408
	1.570000	0.090505
	1.575000	0.013144
	1.580000	0.055048
	1.585000	0.132408
	1.590000	0.077611
	1.595000	0.006697
	1.600000	0.051825
	1.605000	0.122738
	1.610000	0.074388
	1.615000	-0.002973
	1.620000	0.051825
	1.625000	0.122738
	1.630000	0.077611
	1.635000	0.006697
	1.640000	0.055048
	1.645000	0.122738
	1.650000	0.077611
	1.655000	0.006697
	1.660000	0.051825
	1.665000	0.129185
	1.670000	0.084058
	1.675000	0.006697
	1.680000	0.051825
	1.685000	0.135632
	1.690000	0.093728
	1.695000	0.016368
	1.700000	0.064718
	1.705000	0.132408
	1.710000	0.093728
	1.715000	0.016368
	1.720000	0.061495
	1.725000	0.138855
	1.730000	0.093728
	1.735000	0.016368
	1.740000	0.064718
	1.745000	0.138855
	1.750000	0.093728
	1.755000	0.026038
	1.760000	0.064718
	1.765000	0.138855
	1.770000	0.100175
	1.775000	0.016368
	1.780000	0.071165
	1.785000	0.145302
	1.790000	0.096952
	1.795000	0.029261
	1.800000	0.064718
	1.805000	0.145302
	1.810000	0.093728
	1.815000	0.016368
	1.820000	0.067941
	1.825000	0.138855
	1.830000	0.093728
	1.835000	0.016368
	1.840000	0.067941
	1.845000	0.138855
	1.850000	0.096952
	1.855000	0.016368
	1.860000	0.064718
	1.865000	0.145302
	1.870000	0.100175
	1.875000	0.019591
	1.880000	0.067941
	1.885000	0.138855
	1.890000	0.093728
	1.895000	0.013144
	1.900000	0.061495
	1.905000	0.142079
	1.910000	0.096952
	1.915000	0.019591
	1.920000	0.061495
	1.925000	0.142079
	1.930000	0.096952
	1.935000	0.019591
	1.940000	0.067941
	1.945000	0.142079
	1.950000	0.096952
	1.955000	0.022814
	1.960000	0.071165
	1.965000	0.142079
	1.970000	0.096952
	1.975000	0.026038
	1.980000	0.067941
	1.985000	0.145302
	1.990000	0.090505
	1.995000	0.019591
	2.000000	0.064718
	2.005000	0.145302
	2.010000	0.103398
	2.015000	0.022814
	2.020000	0.067941
	2.025000	0.145302
	2.030000	0.100175
	2.035000	0.019591
	2.040000	0.067941
	2.045000	0.142079
	2.050000	0.096952
	2.055000	0.016368
	2.060000	0.064718
	2.065000	0.142079
	2.070000	0.093728
	2.075000	0.026038
	2.080000	0.064718
	2.085000	0.138855
	2.090000	0.100175
	2.095000	0.026038
	2.100000	0.067941
	2.105000	0.142079
	2.110000	0.103398
	2.115000	0.022814
	2.120000	0.071165
	2.125000	0.135632
	2.130000	0.100175
	2.135000	0.019591
	2.140000	0.064718
	2.145000	0.145302
	2.150000	0.096952
	2.155000	0.019591
	2.160000	0.064718
	2.165000	0.142079
	2.170000	0.093728
	2.175000	0.019591
	2.180000	0.061495
	2.185000	0.145302
	2.190000	0.103398
	2.195000	0.026038
	2.200000	0.064718
	2.205000	0.145302
	2.210000	0.100175
	2.215000	0.019591
	2.220000	0.067941
	2.225000	0.148525
	2.230000	0.103398
	2.235000	0.022814
	2.240000	0.064718
	2.245000	0.142079
	2.250000	0.103398
	2.255000	0.022814
	2.260000	0.071165
	2.265000	0.138855
	2.270000	0.103398
	2.275000	0.026038
	2.280000	0.071165
	2.285000	0.145302
	2.290000	0.100175
	2.295000	0.019591
	2.300000	0.067941
	2.305000	0.151749
	2.310000	0.103398
	2.315000	0.022814
	2.320000	0.071165
	2.325000	0.145302
	2.330000	0.103398
	2.335000	0.029261
	2.340000	0.071165
	2.345000	0.148525
	2.350000	0.106622
	2.355000	0.026038
	2.360000	0.074388
	2.365000	0.148525
	2.370000	0.106622
	2.375000	0.026038
	2.380000	0.071165
	2.385000	0.151749
	2.390000	0.109845
	2.395000	0.029261
	2.400000	0.074388
	2.405000	0.148525
	2.410000	0.113068
	2.415000	0.032484
	2.420000	0.071165
	2.425000	0.148525
	2.430000	0.109845
	2.435000	0.026038
	2.440000	0.074388
	2.445000	0.151749
	2.450000	0.116292
	2.455000	0.029261
	2.460000	0.074388
	2.465000	0.154972
	2.470000	0.116292
	2.475000	0.029261
	2.480000	0.071165
	2.485000	0.161419
	2.490000	0.109845
	2.495000	0.032484
	2.500000	0.077611
	2.505000	0.154972
	2.510000	0.116292
	2.515000	0.032484
	2.520000	0.077611
	2.525000	0.161419
	2.530000	0.113068
	2.535000	0.035708
	2.540000	0.074388
	2.545000	0.148525
	2.550000	0.113068
	2.555000	0.032484
	2.560000	0.074388
	2.565000	0.158195
	2.570000	0.116292
	2.575000	0.042154
	2.580000	0.071165
	2.585000	0.158195
	2.590000	0.116292
	2.595000	0.038931
	2.600000	0.077611
	2.605000	0.158195
	2.610000	0.116292
	2.615000	0.038931
	2.620000	0.077611
	2.625000	0.161419
	2.630000	0.113068
	2.635000	0.038931
	2.640000	0.077611
	2.645000	0.158195
	2.650000	0.119515
	2.655000	0.035708
	2.660000	0.077611
	2.665000	0.154972
	2.670000	0.116292
	2.675000	0.032484
	2.680000	0.080835
	2.685000	0.154972
	2.690000	0.116292
	2.695000	0.038931
	2.700000	0.080835
	2.705000	0.154972
	2.710000	0.119515
	2.715000	0.038931
	2.720000	0.074388
	2.725000	0.161419
	2.730000	0.122738
	2.735000	0.038931
	2.740000	0.077611
	2.745000	0.161419
	2.750000	0.119515
	2.755000	0.035708
	2.760000	0.080835
	2.765000	0.164642
	2.770000	0.116292
	2.775000	0.045378
	2.780000	0.077611
	2.785000	0.164642
	2.790000	0.122738
	2.795000	0.038931
	2.800000	0.080835
	2.805000	0.164642
	2.810000	0.119515
	2.815000	0.038931
	2.820000	0.077611
	2.825000	0.158195
	2.830000	0.119515
	2.835000	0.038931
	2.840000	0.080835
	2.845000	0.158195
	2.850000	0.119515
	2.855000	0.038931
	2.860000	0.087281
	2.865000	0.164642
	2.870000	0.122738
	2.875000	0.042154
	2.880000	0.087281
	2.885000	0.161419
	2.890000	0.122738
	2.895000	0.038931
	2.900000	0.084058
	2.905000	0.167865
	2.910000	0.125962
	2.915000	0.042154
	2.920000	0.084058
	2.925000	0.174312
	2.930000	0.129185
	2.935000	0.051825
	2.940000	0.103398
	2.945000	0.187206
	2.950000	0.142079
	2.955000	0.067941
	2.960000	0.119515
	2.965000	0.206546
	2.970000	0.171089
	2.975000	0.093728
	2.980000	0.138855
	2.985000	0.225886
	2.990000	0.190429
	2.995000	0.119515
	3.000000	0.154972
	3.005000	0.235556
	3.010000	0.209769
	3.015000	0.122738
	3.020000	0.167865
	3.025000	0.248449
	3.030000	0.219439
	3.035000	0.142079
	3.040000	0.177536
	3.045000	0.258119
	3.050000	0.225886
	3.055000	0.142079
	3.060000	0.187206
	3.065000	0.271013
	3.070000	0.238779
	3.075000	0.154972
	3.080000	0.193652
	3.085000	0.274236
	3.090000	0.238779
	3.095000	0.158195
	3.100000	0.200099
	3.105000	0.283906
	3.110000	0.235556
	3.115000	0.164642
	3.120000	0.200099
	3.125000	0.283906
	3.130000	0.238779
	3.135000	0.167865
	3.140000	0.206546
	3.145000	0.287130
	3.150000	0.235556
	3.155000	0.164642
	3.160000	0.200099
	3.165000	0.283906
	3.170000	0.245226
	3.175000	0.167865
	3.180000	0.206546
	3.185000	0.283906
	3.190000	0.242003
	3.195000	0.167865
	3.200000	0.206546
	3.205000	0.287130
	3.210000	0.245226
	3.215000	0.164642
	3.220000	0.203322
	3.225000	0.280683
	3.230000	0.248449
	3.235000	0.167865
	3.240000	0.206546
	3.245000	0.280683
	3.250000	0.248449
	3.255000	0.164642
	3.260000	0.203322
	3.265000	0.287130
	3.270000	0.251673
	3.275000	0.167865
	3.280000	0.212992
	3.285000	0.287130
	3.290000	0.248449
	3.295000	0.174312
	3.300000	0.206546
	3.305000	0.283906
	3.310000	0.248449
	3.315000	0.164642
	3.320000	0.206546
	3.325000	0.287130
	3.330000	0.245226
	3.335000	0.174312
	3.340000	0.206546
	3.345000	0.283906
	3.350000	0.258119
	3.355000	0.171089
	3.360000	0.212992
	3.365000	0.287130
	3.370000	0.258119
	3.375000	0.171089
	3.380000	0.216216
	3.385000	0.283906
	3.390000	0.254896
	3.395000	0.177536
	3.400000	0.209769
	3.405000	0.287130
	3.410000	0.251673
	3.415000	0.174312
	3.420000	0.209769
	3.425000	0.280683
	3.430000	0.245226
	3.435000	0.167865
	3.440000	0.200099
	3.445000	0.271013
	3.450000	0.245226
	3.455000	0.161419
	3.460000	0.196876
	3.465000	0.274236
	3.470000	0.232333
	3.475000	0.154972
	3.480000	0.180759
	3.485000	0.261343
	3.490000	0.219439
	3.495000	0.142079
	3.500000	0.177536
	3.505000	0.245226
	3.510000	0.209769
	3.515000	0.122738
	3.520000	0.158195
	3.525000	0.219439
	3.530000	0.193652
	3.535000	0.113068
	3.540000	0.132408
	3.545000	0.206546
	3.550000	0.164642
	3.555000	0.084058
	3.560000	0.116292
	3.565000	0.183982
	3.570000	0.145302
	3.575000	0.061495
	3.580000	0.093728
	3.585000	0.167865
	3.590000	0.129185
	3.595000	0.045378
	3.600000	0.080835
	3.605000	0.161419
	3.610000	0.119515
	3.615000	0.042154
	3.620000	0.074388
	3.625000	0.158195
	3.630000	0.119515
	3.635000	0.035708
	3.640000	0.064718
	3.645000	0.151749
	3.650000	0.116292
	3.655000	0.026038
	3.660000	0.067941
	3.665000	0.158195
	3.670000	0.113068
	3.675000	0.029261
	3.680000	0.064718
	3.685000	0.151749
	3.690000	0.109845
	3.695000	0.032484
	3.700000	0.064718
	3.705000	0.148525
	3.710000	0.106622
	3.715000	0.038931
	3.720000	0.061495
	3.725000	0.145302
	3.730000	0.116292
	3.735000	0.035708
	3.740000	0.071165
	3.745000	0.148525
	3.750000	0.113068
	3.755000	0.032484
	3.760000	0.064718
	3.765000	0.148525
	3.770000	0.116292
	3.775000	0.035708
	3.780000	0.067941
	3.785000	0.151749
	3.790000	0.116292
	3.795000	0.038931
	3.800000	0.071165
	3.805000	0.151749
	3.810000	0.122738
	3.815000	0.032484
	3.820000	0.074388
	3.825000	0.151749
	3.830000	0.122738
	3.835000	0.042154
	3.840000	0.071165
	3.845000	0.151749
	3.850000	0.122738
	3.855000	0.035708
	3.860000	0.077611
	3.865000	0.154972
	3.870000	0.116292
	3.875000	0.038931
	3.880000	0.067941
	3.885000	0.154972
	3.890000	0.119515
	3.895000	0.038931
	3.900000	0.071165
	3.905000	0.154972
	3.910000	0.116292
	3.915000	0.038931
	3.920000	0.071165
	3.925000	0.151749
	3.930000	0.119515
	3.935000	0.038931
	3.940000	0.067941
	3.945000	0.151749
	3.950000	0.119515
	3.955000	0.035708
	3.960000	0.067941
	3.965000	0.151749
	3.970000	0.113068
	3.975000	0.035708
	3.980000	0.064718
	3.985000	0.151749
	3.990000	0.113068
	3.995000	0.032484
	4.000000	0.067941
	4.005000	0.148525
	4.010000	0.122738
	4.015000	0.029261
	4.020000	0.071165
	4.025000	0.151749
	4.030000	0.119515
	4.035000	0.035708
	4.040000	0.071165
	4.045000	0.154972
	4.050000	0.116292
	4.055000	0.035708
	4.060000	0.064718
	4.065000	0.158195
	4.070000	0.125962
	4.075000	0.045378
	4.080000	0.077611
	4.085000	0.154972
	4.090000	0.125962
	4.095000	0.045378
	4.100000	0.071165
	4.105000	0.151749
	4.110000	0.122738
	4.115000	0.042154
	4.120000	0.077611
	4.125000	0.158195
	4.130000	0.122738
	4.135000	0.042154
	4.140000	0.074388
	4.145000	0.161419
	4.150000	0.119515
	4.155000	0.045378
	4.160000	0.074388
	4.165000	0.158195
	4.170000	0.125962
	4.175000	0.035708
	4.180000	0.077611
	4.185000	0.154972
	4.190000	0.125962
	4.195000	0.045378
	4.200000	0.077611
	4.205000	0.151749
	4.210000	0.125962
	4.215000	0.042154
	4.220000	0.077611
	4.225000	0.161419
	4.230000	0.132408
	4.235000	0.038931
	4.240000	0.077611
	4.245000	0.158195
	4.250000	0.129185
	4.255000	0.045378
	4.260000	0.077611
	4.265000	0.161419
	4.270000	0.125962
	4.275000	0.042154
	4.280000	0.080835
	4.285000	0.161419
	4.290000	0.129185
	4.295000	0.042154
	4.300000	0.077611
	4.305000	0.154972
	4.310000	0.132408
	4.315000	0.042154
	4.320000	0.077611
	4.325000	0.161419
	4.330000	0.132408
	4.335000	0.038931
	4.340000	0.074388
	4.345000	0.161419
	4.350000	0.129185
	4.355000	0.048601
	4.360000	0.080835
	4.365000	0.161419
	4.370000	0.135632
	4.375000	0.042154
	4.380000	0.077611
	4.385000	0.158195
	4.390000	0.129185
	4.395000	0.045378
	4.400000	0.077611
	4.405000	0.164642
	4.410000	0.132408
	4.415000	0.045378
	4.420000	0.084058
	4.425000	0.164642
	4.430000	0.135632
	4.435000	0.045378
	4.440000	0.074388
	4.445000	0.164642
	4.450000	0.135632
	4.455000	0.051825
	4.460000	0.087281
	4.465000	0.167865
	4.470000	0.142079
	4.475000	0.051825
	4.480000	0.080835
	4.485000	0.167865
	4.490000	0.132408
	4.495000	0.051825
	4.500000	0.074388
	4.505000	0.167865
	4.510000	0.138855
	4.515000	0.055048
	4.520000	0.087281
	4.525000	0.174312
	4.530000	0.138855
	4.535000	0.051825
	4.540000	0.080835
	4.545000	0.167865
	4.550000	0.132408
	4.555000	0.051825
	4.560000	0.080835
	4.565000	0.171089
	4.570000	0.138855
	4.575000	0.051825
	4.580000	0.090505
	4.585000	0.167865
	4.590000	0.142079
	4.595000	0.055048
	4.600000	0.084058
	4.605000	0.180759
	4.610000	0.142079
	4.615000	0.061495
	4.620000	0.087281
	4.625000	0.174312
	4.630000	0.142079
	4.635000	0.058271
	4.640000	0.090505
	4.645000	0.171089
	4.650000	0.145302
	4.655000	0.058271
	4.660000	0.084058
	4.665000	0.174312
	4.670000	0.145302
	4.675000	0.058271
	4.680000	0.093728
	4.685000	0.177536
	4.690000	0.148525
	4.695000	0.061495
	4.700000	0.090505
	4.705000	0.174312
	4.710000	0.148525
	4.715000	0.058271
	4.720000	0.090505
	4.725000	0.177536
	4.730000	0.148525
	4.735000	0.051825
	4.740000	0.090505
	4.745000	0.171089
	4.750000	0.148525
	4.755000	0.058271
	4.760000	0.087281
	4.765000	0.171089
	4.770000	0.151749
	4.775000	0.058271
	4.780000	0.093728
	4.785000	0.177536
	4.790000	0.145302
	4.795000	0.058271
	4.800000	0.090505
	4.805000	0.180759
	4.810000	0.145302
	4.815000	0.058271
	4.820000	0.087281
	4.825000	0.171089
	4.830000	0.151749
	4.835000	0.061495
	4.840000	0.090505
	4.845000	0.177536
	4.850000	0.148525
	4.855000	0.058271
	4.860000	0.090505
	4.865000	0.177536
	4.870000	0.148525
	4.875000	0.064718
	4.880000	0.093728
	4.885000	0.177536
	4.890000	0.151749
	4.895000	0.061495
	4.900000	0.093728
	4.905000	0.177536
	4.910000	0.154972
	4.915000	0.067941
	4.920000	0.093728
	4.925000	0.180759
	4.930000	0.151749
	4.935000	0.064718
	4.940000	0.090505
	4.945000	0.174312
	4.950000	0.154972
	4.955000	0.061495
	4.960000	0.087281
	4.965000	0.180759
	4.970000	0.154972
	4.975000	0.067941
	4.980000	0.093728
	4.985000	0.177536
	4.990000	0.151749
	4.995000	0.064718
	5.000000	0.096952
	5.005000	0.177536
	5.010000	0.158195
	5.015000	0.064718
	5.020000	0.090505
	5.025000	0.177536
	5.030000	0.151749
	5.035000	0.064718
	5.040000	0.090505
	5.045000	0.177536
	5.050000	0.154972
	5.055000	0.064718
	5.060000	0.090505
	5.065000	0.174312
	5.070000	0.154972
	5.075000	0.058271
	5.080000	0.093728
	5.085000	0.180759
	5.090000	0.154972
	5.095000	0.064718
	5.100000	0.087281
	5.105000	0.180759
	5.110000	0.151749
	5.115000	0.064718
	5.120000	0.090505
	5.125000	0.180759
	5.130000	0.154972
	5.135000	0.064718
	5.140000	0.090505
	5.145000	0.180759
	5.150000	0.148525
	5.155000	0.071165
	5.160000	0.093728
	5.165000	0.180759
	5.170000	0.154972
	5.175000	0.067941
	5.180000	0.090505
	5.185000	0.180759
	5.190000	0.158195
	5.195000	0.071165
	5.200000	0.090505
	5.205000	0.171089
	5.210000	0.154972
	5.215000	0.064718
	5.220000	0.087281
	5.225000	0.174312
	5.230000	0.161419
	5.235000	0.067941
	5.240000	0.093728
	5.245000	0.177536
	5.250000	0.154972
	5.255000	0.074388
	5.260000	0.093728
	5.265000	0.180759
	5.270000	0.158195
	5.275000	0.071165
	5.280000	0.100175
	5.285000	0.187206
	5.290000	0.167865
	5.295000	0.084058
	5.300000	0.109845
	5.305000	0.196876
	5.310000	0.180759
	5.315000	0.103398
	5.320000	0.129185
	5.325000	0.219439
	5.330000	0.206546
	5.335000	0.125962
	5.340000	0.154972
	5.345000	0.242003
	5.350000	0.229109
	5.355000	0.138855
	5.360000	0.167865
	5.365000	0.264566
	5.370000	0.242003
	5.375000	0.164642
	5.380000	0.196876
	5.385000	0.283906
	5.390000	0.264566
	5.395000	0.187206
	5.400000	0.209769
	5.405000	0.293576
	5.410000	0.280683
	5.415000	0.203322
	5.420000	0.225886
	5.425000	0.312917
	5.430000	0.290353
	5.435000	0.203322
	5.440000	0.232333
	5.445000	0.316140
	5.450000	0.296800
	5.455000	0.209769
	5.460000	0.232333
	5.465000	0.316140
	5.470000	0.296800
	5.475000	0.206546
	5.480000	0.229109
	5.485000	0.306470
	5.490000	0.290353
	5.495000	0.206546
	5.500000	0.225886
	5.505000	0.303247
	5.510000	0.283906
	5.515000	0.203322
	5.520000	0.222663
	5.525000	0.312917
	5.530000	0.280683
	5.535000	0.193652
	5.540000	0.216216
	5.545000	0.300023
	5.550000	0.274236
	5.555000	0.190429
	5.560000	0.209769
	5.565000	0.293576
	5.570000	0.271013
	5.575000	0.183982
	5.580000	0.203322
	5.585000	0.287130
	5.590000	0.271013
	5.595000	0.180759
	5.600000	0.206546
	5.605000	0.280683
	5.610000	0.264566
	5.615000	0.171089
	5.620000	0.200099
	5.625000	0.280683
	5.630000	0.261343
	5.635000	0.177536
	5.640000	0.190429
	5.645000	0.277460
	5.650000	0.254896
	5.655000	0.164642
	5.660000	0.187206
	5.665000	0.264566
	5.670000	0.242003
	5.675000	0.161419
	5.680000	0.177536
	5.685000	0.258119
	5.690000	0.232333
	5.695000	0.142079
	5.700000	0.154972
	5.705000	0.245226
	5.710000	0.219439
	5.715000	0.129185
	5.720000	0.148525
	5.725000	0.235556
	5.730000	0.203322
	5.735000	0.119515
	5.740000	0.132408
	5.745000	0.216216
	5.750000	0.190429
	5.755000	0.100175
	5.760000	0.122738
	5.765000	0.200099
	5.770000	0.177536
	5.775000	0.087281
	5.780000	0.106622
	5.785000	0.183982
	5.790000	0.171089
	5.795000	0.077611
	5.800000	0.096952
	5.805000	0.183982
	5.810000	0.158195
	5.815000	0.071165
	5.820000	0.084058
	5.825000	0.174312
	5.830000	0.151749
	5.835000	0.064718
	5.840000	0.090505
	5.845000	0.167865
	5.850000	0.148525
	5.855000	0.061495
	5.860000	0.077611
	5.865000	0.164642
	5.870000	0.145302
	5.875000	0.058271
	5.880000	0.071165
	5.885000	0.161419
	5.890000	0.145302
	5.895000	0.055048
	5.900000	0.074388
	5.905000	0.164642
	5.910000	0.145302
	5.915000	0.051825
	5.920000	0.074388
	5.925000	0.158195
	5.930000	0.142079
	5.935000	0.058271
	5.940000	0.077611
	5.945000	0.161419
	5.950000	0.142079
	5.955000	0.058271
	5.960000	0.077611
	5.965000	0.161419
	5.970000	0.142079
	5.975000	0.061495
	5.980000	0.080835
	5.985000	0.164642
	5.990000	0.145302
	5.995000	0.064718
	6.000000	0.080835
	6.005000	0.167865
	6.010000	0.148525
	6.015000	0.061495
	6.020000	0.077611
	6.025000	0.161419
	6.030000	0.145302
	6.035000	0.061495
	6.040000	0.074388
	6.045000	0.164642
	6.050000	0.151749
	6.055000	0.061495
	6.060000	0.074388
	6.065000	0.164642
	6.070000	0.151749
	6.075000	0.058271
	6.080000	0.071165
	6.085000	0.164642
	6.090000	0.151749
	6.095000	0.055048
	6.100000	0.080835
	6.105000	0.161419
	6.110000	0.142079
	6.115000	0.058271
	6.120000	0.077611
	6.125000	0.161419
	6.130000	0.148525
	6.135000	0.064718
	6.140000	0.080835
	6.145000	0.167865
	6.150000	0.154972
	6.155000	0.061495
	6.160000	0.080835
	6.165000	0.161419
	6.170000	0.148525
	6.175000	0.061495
	6.180000	0.074388
	6.185000	0.167865
	6.190000	0.151749
	6.195000	0.061495
	6.200000	0.077611
	6.205000	0.164642
	6.210000	0.148525
	6.215000	0.061495
	6.220000	0.080835
	6.225000	0.167865
	6.230000	0.148525
	6.235000	0.061495
	6.240000	0.084058
	6.245000	0.164642
	6.250000	0.154972
	6.255000	0.061495
	6.260000	0.084058
	6.265000	0.167865
	6.270000	0.148525
	6.275000	0.064718
	6.280000	0.074388
	6.285000	0.167865
	6.290000	0.154972
	6.295000	0.067941
	6.300000	0.080835
	6.305000	0.174312
	6.310000	0.158195
	6.315000	0.061495
	6.320000	0.077611
	6.325000	0.174312
	6.330000	0.154972
	6.335000	0.064718
	6.340000	0.080835
	6.345000	0.171089
	6.350000	0.151749
	6.355000	0.064718
	6.360000	0.080835
	6.365000	0.174312
	6.370000	0.158195
	6.375000	0.071165
	6.380000	0.077611
	6.385000	0.171089
	6.390000	0.154972
	6.395000	0.067941
	6.400000	0.077611
	6.405000	0.164642
	6.410000	0.158195
	6.415000	0.067941
	6.420000	0.077611
	6.425000	0.174312
	6.430000	0.154972
	6.435000	0.071165
	6.440000	0.084058
	6.445000	0.167865
	6.450000	0.161419
	6.455000	0.071165
	6.460000	0.077611
	6.465000	0.167865
	6.470000	0.161419
	6.475000	0.071165
	6.480000	0.080835
	6.485000	0.171089
	6.490000	0.158195
	6.495000	0.071165
	6.500000	0.080835
	6.505000	0.164642
	6.510000	0.161419
	6.515000	0.064718
	6.520000	0.084058
	6.525000	0.167865
	6.530000	0.158195
	6.535000	0.067941
	6.540000	0.084058
	6.545000	0.171089
	6.550000	0.154972
	6.555000	0.071165
	6.560000	0.084058
	6.565000	0.177536
	6.570000	0.158195
	6.575000	0.067941
	6.580000	0.077611
	6.585000	0.177536
	6.590000	0.164642
	6.595000	0.071165
	6.600000	0.087281
	6.605000	0.167865
	6.610000	0.161419
	6.615000	0.071165
	6.620000	0.084058
	6.625000	0.177536
	6.630000	0.161419
	6.635000	0.074388
	6.640000	0.087281
	6.645000	0.174312
	6.650000	0.161419
	6.655000	0.074388
	6.660000	0.080835
	6.665000	0.177536
	6.670000	0.161419
	6.675000	0.074388
	6.680000	0.084058
	6.685000	0.171089
	6.690000	0.158195
	6.695000	0.077611
	6.700000	0.080835
	6.705000	0.177536
	6.710000	0.167865
	6.715000	0.071165
	6.720000	0.084058
	6.725000	0.174312
	6.730000	0.164642
	6.735000	0.071165
	6.740000	0.084058
	6.745000	0.174312
	6.750000	0.164642
	6.755000	0.074388
	6.760000	0.087281
	6.765000	0.177536
	6.770000	0.174312
	6.775000	0.074388
	6.780000	0.093728
	6.785000	0.177536
	6.790000	0.164642
	6.795000	0.074388
	6.800000	0.090505
	6.805000	0.180759
	6.810000	0.171089
	6.815000	0.080835
	6.820000	0.087281
	6.825000	0.180759
	6.830000	0.164642
	6.835000	0.077611
	6.840000	0.090505
	6.845000	0.180759
	6.850000	0.167865
	6.855000	0.084058
	6.860000	0.093728
	6.865000	0.180759
	6.870000	0.171089
	6.875000	0.084058
	6.880000	0.087281
	6.885000	0.180759
	6.890000	0.177536
	6.895000	0.080835
	6.900000	0.090505
	6.905000	0.180759
	6.910000	0.174312
	6.915000	0.084058
	6.920000	0.090505
	6.925000	0.177536
	6.930000	0.171089
	6.935000	0.077611
	6.940000	0.090505
	6.945000	0.180759
	6.950000	0.174312
	6.955000	0.084058
	6.960000	0.087281
	6.965000	0.180759
	6.970000	0.174312
	6.975000	0.074388
	6.980000	0.090505
	6.985000	0.180759
	6.990000	0.174312
	6.995000	0.084058
	7.000000	0.093728
	7.005000	0.180759
	7.010000	0.177536
	7.015000	0.080835
	7.020000	0.093728
	7.025000	0.183982
	7.030000	0.177536
	7.035000	0.080835
	7.040000	0.090505
	7.045000	0.180759
	7.050000	0.167865
	7.055000	0.080835
	7.060000	0.096952
	7.065000	0.180759
	7.070000	0.174312
	7.075000	0.080835
	7.080000	0.090505
	7.085000	0.180759
	7.090000	0.174312
	7.095000	0.077611
	7.100000	0.090505
	7.105000	0.180759
	7.110000	0.177536
	7.115000	0.087281
	7.120000	0.093728
	7.125000	0.180759
	7.130000	0.171089
	7.135000	0.080835
	7.140000	0.093728
	7.145000	0.183982
	7.150000	0.171089
	7.155000	0.087281
	7.160000	0.090505
	7.165000	0.183982
	7.170000	0.183982
	7.175000	0.087281
	7.180000	0.093728
	7.185000	0.177536
	7.190000	0.180759
	7.195000	0.090505
	7.200000	0.090505
	7.205000	0.190429
	7.210000	0.180759
	7.215000	0.090505
	7.220000	0.096952
	7.225000	0.187206
	7.230000	0.183982
	7.235000	0.090505
	7.240000	0.096952
	7.245000	0.183982
	7.250000	0.180759
	7.255000	0.087281
	7.260000	0.090505
	7.265000	0.183982
	7.270000	0.177536
	7.275000	0.093728
	7.280000	0.090505
	7.285000	0.183982
	7.290000	0.174312
	7.295000	0.084058
	7.300000	0.096952
	7.305000	0.187206
	7.310000	0.180759
	7.315000	0.084058
	7.320000	0.096952
	7.325000	0.180759
	7.330000	0.180759
	7.335000	0.087281
	7.340000	0.087281
	7.345000	0.187206
	7.350000	0.187206
	7.355000	0.090505
	7.360000	0.096952
	7.365000	0.183982
	7.370000	0.180759
	7.375000	0.096952
	7.380000	0.093728
	7.385000	0.190429
	7.390000	0.177536
	7.395000	0.096952
	7.400000	0.100175
	7.405000	0.177536
	7.410000	0.180759
	7.415000	0.090505
	7.420000	0.096952
	7.425000	0.190429
	7.430000	0.183982
	7.435000	0.090505
	7.440000	0.096952
	7.445000	0.193652
	7.450000	0.190429
	7.455000	0.096952
	7.460000	0.103398
	7.465000	0.196876
	7.470000	0.193652
	7.475000	0.109845
	7.480000	0.109845
	7.485000	0.200099
	7.490000	0.206546
	7.495000	0.109845
	7.500000	0.116292
	7.505000	0.209769
	7.510000	0.212992
	7.515000	0.116292
	7.520000	0.122738
	7.525000	0.212992
	7.530000	0.216216
	7.535000	0.125962
	7.540000	0.138855
	7.545000	0.225886
	7.550000	0.225886
	7.555000	0.138855
	7.560000	0.142079
	7.565000	0.232333
	7.570000	0.235556
	7.575000	0.151749
	7.580000	0.154972
	7.585000	0.245226
	7.590000	0.248449
	7.595000	0.161419
	7.600000	0.164642
	7.605000	0.258119
	7.610000	0.261343
	7.615000	0.171089
	7.620000	0.177536
	7.625000	0.267790
	7.630000	0.267790
	7.635000	0.187206
	7.640000	0.193652
	7.645000	0.280683
	7.650000	0.283906
	7.655000	0.206546
	7.660000	0.206546
	7.665000	0.296800
	7.670000	0.303247
	7.675000	0.216216
	7.680000	0.209769
	7.685000	0.309693
	7.690000	0.303247
	7.695000	0.219439
	7.700000	0.219439
	7.705000	0.303247
	7.710000	0.306470
	7.715000	0.216216
	7.720000	0.216216
	7.725000	0.306470
	7.730000	0.306470
	7.735000	0.212992
	7.740000	0.216216
	7.745000	0.306470
	7.750000	0.300023
	7.755000	0.212992
	7.760000	0.216216
	7.765000	0.293576
	7.770000	0.303247
	7.775000	0.212992
	7.780000	0.206546
	7.785000	0.296800
	7.790000	0.290353
	7.795000	0.206546
	7.800000	0.206546
	7.805000	0.290353
	7.810000	0.293576
	7.815000	0.209769
	7.820000	0.200099
	7.825000	0.293576
	7.830000	0.290353
	7.835000	0.206546
	7.840000	0.203322
	7.845000	0.290353
	7.850000	0.283906
	7.855000	0.200099
	7.860000	0.196876
	7.865000	0.283906
	7.870000	0.280683
	7.875000	0.203322
	7.880000	0.193652
	7.885000	0.283906
	7.890000	0.287130
	7.895000	0.193652
	7.900000	0.190429
	7.905000	0.283906
	7.910000	0.280683
	7.915000	0.187206
	7.920000	0.187206
	7.925000	0.277460
	7.930000	0.274236
	7.935000	0.187206
	7.940000	0.183982
	7.945000	0.267790
	7.950000	0.274236
	7.955000	0.183982
	7.960000	0.177536
	7.965000	0.261343
	7.970000	0.267790
	7.975000	0.180759
	7.980000	0.180759
	7.985000	0.254896
	7.990000	0.258119
	7.995000	0.174312
	8.000000	0.171089
	8.005000	0.251673
	8.010000	0.258119
	8.015000	0.171089
	8.020000	0.167865
	8.025000	0.251673
	8.030000	0.258119
	8.035000	0.171089
	8.040000	0.158195
	8.045000	0.242003
	8.050000	0.251673
	8.055000	0.158195
	8.060000	0.151749
	8.065000	0.238779
	8.070000	0.238779
	8.075000	0.148525
	8.080000	0.145302
	8.085000	0.222663
	8.090000	0.229109
	8.095000	0.129185
	8.100000	0.122738
	8.105000	0.212992
	8.110000	0.212992
	8.115000	0.119515
	8.120000	0.113068
	8.125000	0.196876
	8.130000	0.203322
	8.135000	0.109845
	8.140000	0.103398
	8.145000	0.193652
	8.150000	0.196876
	8.155000	0.106622
	8.160000	0.096952
	8.165000	0.187206
	8.170000	0.187206
	8.175000	0.096952
	8.180000	0.093728
	8.185000	0.180759
	8.190000	0.183982
	8.195000	0.096952
	8.200000	0.090505
	8.205000	0.177536
	8.210000	0.180759
	8.215000	0.090505
	8.220000	0.084058
	8.225000	0.167865
	8.230000	0.171089
	8.235000	0.084058
	8.240000	0.080835
	8.245000	0.171089
	8.250000	0.174312
	8.255000	0.077611
	8.260000	0.077611
	8.265000	0.164642
	8.270000	0.167865
	8.275000	0.080835
	8.280000	0.074388
	8.285000	0.161419
	8.290000	0.167865
	8.295000	0.080835
	8.300000	0.067941
	8.305000	0.158195
	8.310000	0.161419
	8.315000	0.080835
	8.320000	0.071165
	8.325000	0.161419
	8.330000	0.167865
	8.335000	0.074388
	8.340000	0.064718
	8.345000	0.158195
	8.350000	0.167865
	8.355000	0.077611
	8.360000	0.074388
	8.365000	0.161419
	8.370000	0.171089
	8.375000	0.077611
	8.380000	0.074388
	8.385000	0.161419
	8.390000	0.167865
	8.395000	0.084058
	8.400000	0.064718
	8.405000	0.158195
	8.410000	0.167865
	8.415000	0.077611
	8.420000	0.071165
	8.425000	0.154972
	8.430000	0.167865
	8.435000	0.074388
	8.440000	0.071165
	8.445000	0.161419
	8.450000	0.164642
	8.455000	0.080835
	8.460000	0.074388
	8.465000	0.154972
	8.470000	0.171089
	8.475000	0.077611
	8.480000	0.071165
	8.485000	0.154972
	8.490000	0.167865
	8.495000	0.077611
	8.500000	0.071165
	8.505000	0.158195
	8.510000	0.174312
	8.515000	0.084058
	8.520000	0.064718
	8.525000	0.158195
	8.530000	0.171089
	8.535000	0.080835
	8.540000	0.064718
	8.545000	0.161419
	8.550000	0.164642
	8.555000	0.074388
	8.560000	0.074388
	8.565000	0.164642
	8.570000	0.171089
	8.575000	0.077611
	8.580000	0.067941
	8.585000	0.158195
	8.590000	0.167865
	8.595000	0.084058
	8.600000	0.074388
	8.605000	0.161419
	8.610000	0.174312
	8.615000	0.077611
	8.620000	0.071165
	8.625000	0.158195
	8.630000	0.174312
	8.635000	0.080835
	8.640000	0.071165
	8.645000	0.164642
	8.650000	0.174312
	8.655000	0.087281
	8.660000	0.080835
	8.665000	0.161419
	8.670000	0.174312
	8.675000	0.084058
	8.680000	0.071165
	8.685000	0.164642
	8.690000	0.174312
	8.695000	0.087281
	8.700000	0.071165
	8.705000	0.158195
	8.710000	0.180759
	8.715000	0.093728
	8.720000	0.071165
	8.725000	0.164642
	8.730000	0.171089
	8.735000	0.093728
	8.740000	0.074388
	8.745000	0.171089
	8.750000	0.180759
	8.755000	0.093728
	8.760000	0.077611
	8.765000	0.164642
	8.770000	0.180759
	8.775000	0.090505
	8.780000	0.071165
	8.785000	0.167865
	8.790000	0.180759
	8.795000	0.087281
	8.800000	0.080835
	8.805000	0.161419
	8.810000	0.183982
	8.815000	0.080835
	8.820000	0.080835
	8.825000	0.158195
	8.830000	0.177536
	8.835000	0.087281
	8.840000	0.080835
	8.845000	0.164642
	8.850000	0.180759
	8.855000	0.087281
	8.860000	0.080835
	8.865000	0.171089
	8.870000	0.183982
	8.875000	0.093728
	8.880000	0.080835
	8.885000	0.171089
	8.890000	0.187206
	8.895000	0.090505
	8.900000	0.077611
	8.905000	0.167865
	8.910000	0.180759
	8.915000	0.093728
	8.920000	0.080835
	8.925000	0.167865
	8.930000	0.187206
	8.935000	0.090505
	8.940000	0.080835
	8.945000	0.171089
	8.950000	0.180759
	8.955000	0.090505
	8.960000	0.080835
	8.965000	0.171089
	8.970000	0.183982
	8.975000	0.093728
	8.980000	0.080835
	8.985000	0.167865
	8.990000	0.190429
	8.995000	0.093728
	9.000000	0.077611
	9.005000	0.171089
	9.010000	0.183982
	9.015000	0.103398
	9.020000	0.080835
	9.025000	0.167865
	9.030000	0.190429
	9.035000	0.096952
	9.040000	0.080835
	9.045000	0.174312
	9.050000	0.187206
	9.055000	0.096952
	9.060000	0.084058
	9.065000	0.171089
	9.070000	0.190429
	9.075000	0.096952
	9.080000	0.084058
	9.085000	0.171089
	9.090000	0.183982
	9.095000	0.096952
	9.100000	0.077611
	9.105000	0.171089
	9.110000	0.190429
	9.115000	0.096952
	9.120000	0.084058
	9.125000	0.177536
	9.130000	0.190429
	9.135000	0.096952
	9.140000	0.087281
	9.145000	0.174312
	9.150000	0.187206
	9.155000	0.100175
	9.160000	0.080835
	9.165000	0.174312
	9.170000	0.187206
	9.175000	0.096952
	9.180000	0.080835
	9.185000	0.167865
	9.190000	0.187206
	9.195000	0.103398
	9.200000	0.077611
	9.205000	0.180759
	9.210000	0.196876
	9.215000	0.100175
	9.220000	0.087281
	9.225000	0.171089
	9.230000	0.196876
	9.235000	0.106622
	9.240000	0.084058
	9.245000	0.177536
	9.250000	0.190429
	9.255000	0.103398
	9.260000	0.087281
	9.265000	0.171089
	9.270000	0.193652
	9.275000	0.100175
	9.280000	0.084058
	9.285000	0.174312
	9.290000	0.193652
	9.295000	0.103398
	9.300000	0.080835
	9.305000	0.171089
	9.310000	0.193652
	9.315000	0.106622
	9.320000	0.087281
	9.325000	0.167865
	9.330000	0.190429
	9.335000	0.106622
	9.340000	0.084058
	9.345000	0.171089
	9.350000	0.200099
	9.355000	0.106622
	9.360000	0.084058
	9.365000	0.171089
	9.370000	0.200099
	9.375000	0.103398
	9.380000	0.087281
	9.385000	0.174312
	9.390000	0.196876
	9.395000	0.103398
	9.400000	0.084058
	9.405000	0.177536
	9.410000	0.200099
	9.415000	0.109845
	9.420000	0.084058
	9.425000	0.177536
	9.430000	0.193652
	9.435000	0.109845
	9.440000	0.087281
	9.445000	0.174312
	9.450000	0.193652
	9.455000	0.106622
	9.460000	0.080835
	9.465000	0.180759
	9.470000	0.190429
	9.475000	0.113068
	9.480000	0.090505
	9.485000	0.180759
	9.490000	0.193652
	9.495000	0.113068
	9.500000	0.093728
	9.505000	0.171089
	9.510000	0.206546
	9.515000	0.106622
	9.520000	0.096952
	9.525000	0.180759
	9.530000	0.200099
	9.535000	0.106622
	9.540000	0.090505
	9.545000	0.177536
	9.550000	0.200099
	9.555000	0.109845
	9.560000	0.096952
	9.565000	0.180759
	9.570000	0.196876
	9.575000	0.113068
	9.580000	0.093728
	9.585000	0.177536
	9.590000	0.200099
	9.595000	0.106622
	9.600000	0.090505
	9.605000	0.180759
	9.610000	0.200099
	9.615000	0.113068
	9.620000	0.090505
	9.625000	0.180759
	9.630000	0.200099
	9.635000	0.119515
	9.640000	0.090505
	9.645000	0.180759
	9.650000	0.196876
	9.655000	0.116292
	9.660000	0.090505
	9.665000	0.177536
	9.670000	0.203322
	9.675000	0.116292
	9.680000	0.093728
	9.685000	0.183982
	9.690000	0.196876
	9.695000	0.113068
	9.700000	0.087281
	9.705000	0.177536
	9.710000	0.206546
	9.715000	0.109845
	9.720000	0.087281
	9.725000	0.171089
	9.730000	0.203322
	9.735000	0.116292
	9.740000	0.087281
	9.745000	0.180759
	9.750000	0.203322
	9.755000	0.113068
	9.760000	0.090505
	9.765000	0.177536
	9.770000	0.203322
	9.775000	0.116292
	9.780000	0.093728
	9.785000	0.180759
	9.790000	0.203322
	9.795000	0.125962
	9.800000	0.100175
	9.805000	0.190429
	9.810000	0.216216
	9.815000	0.129185
	9.820000	0.113068
	9.825000	0.200099
	9.830000	0.229109
	9.835000	0.145302
	9.840000	0.125962
	9.845000	0.212992
	9.850000	0.235556
	9.855000	0.158195
	9.860000	0.138855
	9.865000	0.229109
	9.870000	0.258119
	9.875000	0.180759
	9.880000	0.154972
	9.885000	0.238779
	9.890000	0.271013
	9.895000	0.183982
	9.900000	0.171089
	9.905000	0.264566
	9.910000	0.287130
	9.915000	0.212992
	9.920000	0.180759
	9.925000	0.277460
	9.930000	0.303247
	9.935000	0.232333
	9.940000	0.200099
	9.945000	0.287130
	9.950000	0.319363
	9.955000	0.235556
	9.960000	0.209769
	9.965000	0.290353
	9.970000	0.322587
	9.975000	0.235556
	9.980000	0.209769
	9.985000	0.293576
	9.990000	0.325810
	9.995000	0.245226
	10.000000	0.212992
	10.005000	0.300023
	10.010000	0.322587
	10.015000	0.245226
	10.020000	0.216216
	10.025000	0.300023
	10.030000	0.322587
	10.035000	0.245226
	10.040000	0.212992
	10.045000	0.293576
	10.050000	0.325810
	10.055000	0.238779
	10.060000	0.209769
	10.065000	0.293576
	10.070000	0.322587
	10.075000	0.235556
	10.080000	0.212992
	10.085000	0.296800
	10.090000	0.322587
	10.095000	0.238779
	10.100000	0.206546
	10.105000	0.293576
	10.110000	0.319363
	10.115000	0.238779
	10.120000	0.209769
	10.125000	0.290353
	10.130000	0.319363
	10.135000	0.235556
	10.140000	0.209769
	10.145000	0.283906
	10.150000	0.322587
	10.155000	0.235556
	10.160000	0.206546
	10.165000	0.287130
	10.170000	0.309693
	10.175000	0.235556
	10.180000	0.200099
	10.185000	0.280683
	10.190000	0.312917
	10.195000	0.222663
	10.200000	0.196876
	10.205000	0.283906
	10.210000	0.303247
	10.215000	0.222663
	10.220000	0.193652
	10.225000	0.274236
	10.230000	0.303247
	10.235000	0.219439
	10.240000	0.183982
	10.245000	0.264566
	10.250000	0.293576
	10.255000	0.212992
	10.260000	0.183982
	10.265000	0.264566
	10.270000	0.287130
	10.275000	0.209769
	10.280000	0.174312
	10.285000	0.248449
	10.290000	0.283906
	10.295000	0.200099
	10.300000	0.161419
	10.305000	0.245226
	10.310000	0.274236
	10.315000	0.180759
	10.320000	0.151749
	10.325000	0.235556
	10.330000	0.261343
	10.335000	0.174312
	10.340000	0.138855
	10.345000	0.219439
	10.350000	0.248449
	10.355000	0.161419
	10.360000	0.129185
	10.365000	0.209769
	10.370000	0.245226
	10.375000	0.154972
	10.380000	0.119515
	10.385000	0.200099
	10.390000	0.229109
	10.395000	0.148525
	10.400000	0.109845
	10.405000	0.187206
	10.410000	0.219439
	10.415000	0.135632
	10.420000	0.100175
	10.425000	0.187206
	10.430000	0.212992
	10.435000	0.132408
	10.440000	0.100175
	10.445000	0.180759
	10.450000	0.206546
	10.455000	0.129185
	10.460000	0.087281
	10.465000	0.171089
	10.470000	0.209769
	10.475000	0.116292
	10.480000	0.090505
	10.485000	0.167865
	10.490000	0.209769
	10.495000	0.125962
	10.500000	0.084058
	10.505000	0.167865
	10.510000	0.203322
	10.515000	0.119515
	10.520000	0.084058
	10.525000	0.164642
	10.530000	0.203322
	10.535000	0.122738
	10.540000	0.090505
	10.545000	0.167865
	10.550000	0.200099
	10.555000	0.116292
	10.560000	0.084058
	10.565000	0.161419
	10.570000	0.196876
	10.575000	0.116292
	10.580000	0.077611
	10.585000	0.161419
	10.590000	0.193652
	10.595000	0.113068
	10.600000	0.077611
	10.605000	0.158195
	10.610000	0.187206
	10.615000	0.109845
	10.620000	0.067941
	10.625000	0.154972
	10.630000	0.190429
	10.635000	0.109845
	10.640000	0.071165
	10.645000	0.154972
	10.650000	0.193652
	10.655000	0.106622
	10.660000	0.067941
	10.665000	0.154972
	10.670000	0.187206
	10.675000	0.103398
	10.680000	0.071165
	10.685000	0.151749
	10.690000	0.190429
	10.695000	0.100175
	10.700000	0.064718
	10.705000	0.148525
	10.710000	0.180759
	10.715000	0.103398
	10.720000	0.067941
	10.725000	0.148525
	10.730000	0.190429
	10.735000	0.109845
	10.740000	0.061495
	10.745000	0.148525
	10.750000	0.190429
	10.755000	0.106622
	10.760000	0.064718
	10.765000	0.148525
	10.770000	0.183982
	10.775000	0.100175
	10.780000	0.067941
	10.785000	0.151749
	10.790000	0.187206
	10.795000	0.106622
	10.800000	0.061495
	10.805000	0.151749
	10.810000	0.180759
	10.815000	0.109845
	10.820000	0.064718
	10.825000	0.148525
	10.830000	0.187206
	10.835000	0.106622
	10.840000	0.074388
	10.845000	0.148525
	10.850000	0.183982
	10.855000	0.113068
	10.860000	0.071165
	10.865000	0.145302
	10.870000	0.190429
	10.875000	0.109845
	10.880000	0.071165
	10.885000	0.154972
	10.890000	0.183982
	10.895000	0.106622
	10.900000	0.067941
	10.905000	0.148525
	10.910000	0.190429
	10.915000	0.109845
	10.920000	0.074388
	10.925000	0.148525
	10.930000	0.190429
	10.935000	0.113068
	10.940000	0.074388
	10.945000	0.151749
	10.950000	0.190429
	10.955000	0.109845
	10.960000	0.074388
	10.965000	0.154972
	10.970000	0.190429
	10.975000	0.113068
	10.980000	0.071165
	10.985000	0.158195
	10.990000	0.190429
	10.995000	0.109845
	11.000000	0.077611
	11.005000	0.151749
	11.010000	0.196876
	11.015000	0.109845
	11.020000	0.067941
	11.025000	0.151749
	11.030000	0.190429
	11.035000	0.119515
	11.040000	0.077611
	11.045000	0.151749
	11.050000	0.196876
	11.055000	0.109845
	11.060000	0.074388
	11.065000	0.151749
	11.070000	0.193652
	11.075000	0.116292
	11.080000	0.067941
	11.085000	0.154972
	11.090000	0.193652
	11.095000	0.113068
	11.100000	0.074388
	11.105000	0.154972
	11.110000	0.196876
	11.115000	0.116292
	11.120000	0.077611
	11.125000	0.154972
	11.130000	0.193652
	11.135000	0.116292
	11.140000	0.074388
	11.145000	0.154972
	11.150000	0.196876
	11.155000	0.119515
	11.160000	0.071165
	11.165000	0.151749
	11.170000	0.203322
	11.175000	0.113068
	11.180000	0.077611
	11.185000	0.151749
	11.190000	0.196876
	11.195000	0.113068
	11.200000	0.074388
	11.205000	0.154972
	11.210000	0.196876
	11.215000	0.116292
	11.220000	0.074388
	11.225000	0.154972
	11.230000	0.193652
	11.235000	0.116292
	11.240000	0.071165
	11.245000	0.148525
	11.250000	0.196876
	11.255000	0.119515
	11.260000	0.074388
	11.265000	0.154972
	11.270000	0.200099
	11.275000	0.116292
	11.280000	0.074388
	11.285000	0.154972
	11.290000	0.203322
	11.295000	0.122738
	11.300000	0.077611
	11.305000	0.154972
	11.310000	0.200099
	11.315000	0.116292
	11.320000	0.074388
	11.325000	0.151749
	11.330000	0.206546
	11.335000	0.122738
	11.340000	0.074388
	11.345000	0.158195
	11.350000	0.200099
	11.355000	0.122738
	11.360000	0.080835
	11.365000	0.151749
	11.370000	0.200099
	11.375000	0.129185
	11.380000	0.080835
	11.385000	0.154972
	11.390000	0.200099
	11.395000	0.125962
	11.400000	0.077611
	11.405000	0.158195
	11.410000	0.200099
	11.415000	0.122738
	11.420000	0.077611
	11.425000	0.158195
	11.430000	0.206546
	11.435000	0.122738
	11.440000	0.080835
	11.445000	0.158195
	11.450000	0.196876
	11.455000	0.125962
	11.460000	0.077611
	11.465000	0.154972
	11.470000	0.206546
	11.475000	0.125962
	11.480000	0.080835
	11.485000	0.151749
	11.490000	0.209769
	11.495000	0.122738
	11.500000	0.077611
	11.505000	0.151749
	11.510000	0.209769
	11.515000	0.132408
	11.520000	0.080835
	11.525000	0.154972
	11.530000	0.212992
	11.535000	0.132408
	11.540000	0.080835
	11.545000	0.158195
	11.550000	0.196876
	11.555000	0.125962
	11.560000	0.080835
	11.565000	0.158195
	11.570000	0.206546
	11.575000	0.125962
	11.580000	0.080835
	11.585000	0.161419
	11.590000	0.203322
	11.595000	0.129185
	11.600000	0.077611
	11.605000	0.154972
	11.610000	0.203322
	11.615000	0.132408
	11.620000	0.080835
	11.625000	0.158195
	11.630000	0.209769
	11.635000	0.135632
	11.640000	0.084058
	11.645000	0.158195
	11.650000	0.206546
	11.655000	0.129185
	11.660000	0.080835
	11.665000	0.158195
	11.670000	0.209769
	11.675000	0.129185
	11.680000	0.087281
	11.685000	0.154972
	11.690000	0.206546
	11.695000	0.129185
	11.700000	0.084058
	11.705000	0.158195
	11.710000	0.209769
	11.715000	0.135632
	11.720000	0.077611
	11.725000	0.158195
	11.730000	0.209769
	11.735000	0.138855
	11.740000	0.084058
	11.745000	0.158195
	11.750000	0.209769
	11.755000	0.135632
	11.760000	0.080835
	11.765000	0.154972
	11.770000	0.212992
	11.775000	0.135632
	11.780000	0.077611
	11.785000	0.161419
	11.790000	0.212992
	11.795000	0.135632
	11.800000	0.087281
	11.805000	0.158195
	11.810000	0.216216
	11.815000	0.135632
	11.820000	0.084058
	11.825000	0.161419
	11.830000	0.219439
	11.835000	0.135632
	11.840000	0.087281
	11.845000	0.158195
	11.850000	0.209769
	11.855000	0.132408
	11.860000	0.084058
	11.865000	0.158195
	11.870000	0.212992
	11.875000	0.138855
	11.880000	0.080835
	11.885000	0.164642
	11.890000	0.206546
	11.895000	0.145302
	11.900000	0.087281
	11.905000	0.158195
	11.910000	0.216216
	11.915000	0.132408
	11.920000	0.087281
	11.925000	0.154972
	11.930000	0.216216
	11.935000	0.138855
	11.940000	0.087281
	11.945000	0.158195
	11.950000	0.206546
	11.955000	0.135632
	11.960000	0.084058
	11.965000	0.158195
	11.970000	0.209769
	11.975000	0.142079
	11.980000	0.084058
	11.985000	0.154972
	11.990000	0.209769
	11.995000	0.132408
	12.000000	0.084058
	12.005000	0.154972
	12.010000	0.216216
	12.015000	0.138855
	12.020000	0.087281
	12.025000	0.154972
	12.030000	0.216216
	12.035000	0.138855
	12.040000	0.090505
	12.045000	0.151749
	12.050000	0.209769
	12.055000	0.135632
	12.060000	0.084058
	12.065000	0.158195
	12.070000	0.216216
	12.075000	0.135632
	12.080000	0.087281
	12.085000	0.154972
	12.090000	0.212992
	12.095000	0.129185
	12.100000	0.080835
	12.105000	0.158195
	12.110000	0.209769
	12.115000	0.138855
	12.120000	0.087281
	12.125000	0.161419
	12.130000	0.219439
	12.135000	0.138855
	12.140000	0.087281
	12.145000	0.158195
	12.150000	0.209769
	12.155000	0.138855
	12.160000	0.077611
	12.165000	0.161419
	12.170000	0.209769
	12.175000	0.138855
	12.180000	0.084058
	12.185000	0.151749
	12.190000	0.212992
	12.195000	0.135632
	12.200000	0.084058
	12.205000	0.154972
	12.210000	0.216216
	12.215000	0.145302
	12.220000	0.084058
	12.225000	0.154972
	12.230000	0.212992
	12.235000	0.142079
	12.240000	0.084058
	12.245000	0.158195
	12.250000	0.212992
	12.255000	0.142079
	12.260000	0.084058
	12.265000	0.158195
	12.270000	0.209769
	12.275000	0.145302
	12.280000	0.087281
	12.285000	0.158195
	12.290000	0.209769
	12.295000	0.145302
	12.300000	0.090505
	12.305000	0.161419
	12.310000	0.212992
	12.315000	0.148525
	12.320000	0.087281
	12.325000	0.158195
	12.330000	0.216216
	12.335000	0.145302
	12.340000	0.080835
	12.345000	0.154972
	12.350000	0.212992
	12.355000	0.142079
	12.360000	0.084058
	12.365000	0.151749
	12.370000	0.216216
	12.375000	0.142079
	12.380000	0.090505
	12.385000	0.158195
	12.390000	0.216216
	12.395000	0.142079
	12.400000	0.087281
	12.405000	0.158195
	12.410000	0.212992
	12.415000	0.145302
	12.420000	0.093728
	12.425000	0.164642
	12.430000	0.225886
	12.435000	0.161419
	12.440000	0.103398
	12.445000	0.167865
	12.450000	0.235556
	12.455000	0.171089
	12.460000	0.113068
	12.465000	0.193652
	12.470000	0.248449
	12.475000	0.190429
	12.480000	0.129185
	12.485000	0.206546
	12.490000	0.261343
	12.495000	0.203322
	12.500000	0.151749
	12.505000	0.222663
	12.510000	0.283906
	12.515000	0.225886
	12.520000	0.171089
	12.525000	0.238779
	12.530000	0.300023
	12.535000	0.242003
	12.540000	0.180759
	12.545000	0.245226
	12.550000	0.312917
	12.555000	0.245226
	12.560000	0.187206
	12.565000	0.261343
	12.570000	0.322587
	12.575000	0.254896
	12.580000	0.196876
	12.585000	0.261343
	12.590000	0.325810
	12.595000	0.271013
	12.600000	0.203322
	12.605000	0.271013
	12.610000	0.329033
	12.615000	0.258119
	12.620000	0.206546
	12.625000	0.271013
	12.630000	0.335480
	12.635000	0.271013
	12.640000	0.206546
	12.645000	0.271013
	12.650000	0.335480
	12.655000	0.267790
	12.660000	0.209769
	12.665000	0.271013
	12.670000	0.332257
	12.675000	0.274236
	12.680000	0.216216
	12.685000	0.267790
	12.690000	0.332257
	12.695000	0.264566
	12.700000	0.209769
	12.705000	0.274236
	12.710000	0.332257
	12.715000	0.271013
	12.720000	0.206546
	12.725000	0.264566
	12.730000	0.329033
	12.735000	0.261343
	12.740000	0.200099
	12.745000	0.261343
	12.750000	0.316140
	12.755000	0.258119
	12.760000	0.193652
	12.765000	0.258119
	12.770000	0.325810
	12.775000	0.254896
	12.780000	0.193652
	12.785000	0.251673
	12.790000	0.309693
	12.795000	0.248449
	12.800000	0.187206
	12.805000	0.245226
	12.810000	0.303247
	12.815000	0.232333
	12.820000	0.174312
	12.825000	0.238779
	12.830000	0.296800
	12.835000	0.229109
	12.840000	0.164642
	12.845000	0.222663
	12.850000	0.277460
	12.855000	0.212992
	12.860000	0.145302
	12.865000	0.209769
	12.870000	0.274236
	12.875000	0.203322
	12.880000	0.135632
	12.885000	0.203322
	12.890000	0.254896
	12.895000	0.193652
	12.900000	0.119515
	12.905000	0.183982
	12.910000	0.238779
	12.915000	0.177536
	12.920000	0.106622
	12.925000	0.171089
	12.930000	0.225886
	12.935000	0.164642
	12.940000	0.096952
	12.945000	0.154972
	12.950000	0.212992
	12.955000	0.145302
	12.960000	0.077611
	12.965000	0.135632
	12.970000	0.196876
	12.975000	0.138855
	12.980000	0.071165
	12.985000	0.122738
	12.990000	0.187206
	12.995000	0.125962
	13.000000	0.061495
	13.005000	0.116292
	13.010000	0.183982
	13.015000	0.129185
	13.020000	0.051825
	13.025000	0.116292
	13.030000	0.180759
	13.035000	0.122738
	13.040000	0.055048
	13.045000	0.119515
	13.050000	0.183982
	13.055000	0.119515
	13.060000	0.055048
	13.065000	0.116292
	13.070000	0.190429
	13.075000	0.135632
	13.080000	0.061495
	13.085000	0.119515
	13.090000	0.193652
	13.095000	0.132408
	13.100000	0.067941
	13.105000	0.125962
	13.110000	0.193652
	13.115000	0.129185
	13.120000	0.067941
	13.125000	0.122738
	13.130000	0.193652
	13.135000	0.142079
	13.140000	0.071165
	13.145000	0.135632
	13.150000	0.203322
	13.155000	0.138855
	13.160000	0.071165
	13.165000	0.138855
	13.170000	0.200099
	13.175000	0.135632
	13.180000	0.071165
	13.185000	0.142079
	13.190000	0.206546
	13.195000	0.142079
	13.200000	0.074388
	13.205000	0.135632
	13.210000	0.203322
	13.215000	0.148525
	13.220000	0.074388
	13.225000	0.132408
	13.230000	0.206546
	13.235000	0.142079
	13.240000	0.074388
	13.245000	0.132408
	13.250000	0.209769
	13.255000	0.148525
	13.260000	0.074388
	13.265000	0.132408
	13.270000	0.200099
	13.275000	0.145302
	13.280000	0.080835
	13.285000	0.135632
	13.290000	0.203322
	13.295000	0.138855
	13.300000	0.080835
	13.305000	0.129185
	13.310000	0.203322
	13.315000	0.142079
	13.320000	0.077611
	13.325000	0.132408
	13.330000	0.200099
	13.335000	0.135632
	13.340000	0.077611
	13.345000	0.132408
	13.350000	0.200099
	13.355000	0.145302
	13.360000	0.074388
	13.365000	0.135632
	13.370000	0.200099
	13.375000	0.142079
	13.380000	0.071165
	13.385000	0.132408
	13.390000	0.200099
	13.395000	0.148525
	13.400000	0.077611
	13.405000	0.132408
	13.410000	0.203322
	13.415000	0.145302
	13.420000	0.077611
	13.425000	0.138855
	13.430000	0.203322
	13.435000	0.151749
	13.440000	0.077611
	13.445000	0.135632
	13.450000	0.206546
	13.455000	0.148525
	13.460000	0.077611
	13.465000	0.132408
	13.470000	0.203322
	13.475000	0.154972
	13.480000	0.071165
	13.485000	0.135632
	13.490000	0.206546
	13.495000	0.151749
	13.500000	0.074388
	13.505000	0.138855
	13.510000	0.209769
	13.515000	0.148525
	13.520000	0.077611
	13.525000	0.132408
	13.530000	0.209769
	13.535000	0.151749
	13.540000	0.077611
	13.545000	0.132408
	13.550000	0.203322
	13.555000	0.151749
	13.560000	0.077611
	13.565000	0.138855
	13.570000	0.203322
	13.575000	0.148525
	13.580000	0.080835
	13.585000	0.135632
	13.590000	0.209769
	13.595000	0.145302
	13.600000	0.071165
	13.605000	0.142079
	13.610000	0.206546
	13.615000	0.151749
	13.620000	0.087281
	13.625000	0.132408
	13.630000	0.206546
	13.635000	0.151749
	13.640000	0.077611
	13.645000	0.138855
	13.650000	0.206546
	13.655000	0.151749
	13.660000	0.077611
	13.665000	0.135632
	13.670000	0.209769
	13.675000	0.151749
	13.680000	0.077611
	13.685000	0.129185
	13.690000	0.206546
	13.695000	0.154972
	13.700000	0.084058
	13.705000	0.132408
	13.710000	0.203322
	13.715000	0.158195
	13.720000	0.080835
	13.725000	0.135632
	13.730000	0.209769
	13.735000	0.158195
	13.740000	0.077611
	13.745000	0.132408
	13.750000	0.206546
	13.755000	0.158195
	13.760000	0.084058
	13.765000	0.135632
	13.770000	0.209769
	13.775000	0.154972
	13.780000	0.080835
	13.785000	0.129185
	13.790000	0.209769
	13.795000	0.154972
	13.800000	0.080835
	13.805000	0.129185
	13.810000	0.206546
	13.815000	0.154972
	13.820000	0.080835
	13.825000	0.135632
	13.830000	0.206546
	13.835000	0.154972
	13.840000	0.077611
	13.845000	0.132408
	13.850000	0.209769
	13.855000	0.158195
	13.860000	0.080835
	13.865000	0.135632
	13.870000	0.206546
	13.875000	0.158195
	13.880000	0.084058
	13.885000	0.132408
	13.890000	0.212992
	13.895000	0.161419
	13.900000	0.084058
	13.905000	0.135632
	13.910000	0.216216
	13.915000	0.158195
	13.920000	0.087281
	13.925000	0.135632
	13.930000	0.206546
	13.935000	0.164642
	13.940000	0.084058
	13.945000	0.132408
	13.950000	0.206546
	13.955000	0.161419
	13.960000	0.080835
	13.965000	0.135632
	13.970000	0.219439
	13.975000	0.167865
	13.980000	0.090505
	13.985000	0.138855
	13.990000	0.212992
	13.995000	0.161419
	14.000000	0.090505
	14.005000	0.132408
	14.010000	0.209769
	14.015000	0.164642
	14.020000	0.087281
	14.025000	0.138855
	14.030000	0.216216
	14.035000	0.161419
	14.040000	0.084058
	14.045000	0.135632
	14.050000	0.216216
	14.055000	0.164642
	14.060000	0.087281
	14.065000	0.142079
	14.070000	0.216216
	14.075000	0.167865
	14.080000	0.090505
	14.085000	0.138855
	14.090000	0.212992
	14.095000	0.164642
	14.100000	0.093728
	14.105000	0.135632
	14.110000	0.216216
	14.115000	0.164642
	14.120000	0.087281
	14.125000	0.135632
	14.130000	0.216216
	14.135000	0.164642
	14.140000	0.093728
	14.145000	0.138855
	14.150000	0.212992
	14.155000	0.167865
	14.160000	0.090505
	14.165000	0.138855
	14.170000	0.209769
	14.175000	0.164642
	14.180000	0.093728
	14.185000	0.138855
	14.190000	0.209769
	14.195000	0.167865
	14.200000	0.090505
	14.205000	0.138855
	14.210000	0.216216
	14.215000	0.177536
	14.220000	0.087281
	14.225000	0.135632
	14.230000	0.219439
	14.235000	0.167865
	14.240000	0.087281
	14.245000	0.135632
	14.250000	0.216216
	14.255000	0.177536
	14.260000	0.090505
	14.265000	0.135632
	14.270000	0.212992
	14.275000	0.167865
	14.280000	0.090505
	14.285000	0.132408
	14.290000	0.216216
	14.295000	0.174312
	14.300000	0.090505
	14.305000	0.135632
	14.310000	0.212992
	14.315000	0.171089
	14.320000	0.090505
	14.325000	0.135632
	14.330000	0.219439
	14.335000	0.174312
	14.340000	0.093728
	14.345000	0.138855
	14.350000	0.216216
	14.355000	0.174312
	14.360000	0.087281
	14.365000	0.142079
	14.370000	0.219439
	14.375000	0.177536
	14.380000	0.096952
	14.385000	0.145302
	14.390000	0.219439
	14.395000	0.177536
	14.400000	0.090505
	14.405000	0.145302
	14.410000	0.225886
	14.415000	0.167865
	14.420000	0.093728
	14.425000	0.135632
	14.430000	0.216216
	14.435000	0.174312
	14.440000	0.096952
	14.445000	0.138855
	14.450000	0.225886
	14.455000	0.177536
	14.460000	0.096952
	14.465000	0.135632
	14.470000	0.212992
	14.475000	0.183982
	14.480000	0.093728
	14.485000	0.135632
	14.490000	0.219439
	14.495000	0.183982
	14.500000	0.093728
	14.505000	0.138855
	14.510000	0.222663
	14.515000	0.180759
	14.520000	0.100175
	14.525000	0.142079
	14.530000	0.219439
	14.535000	0.171089
	14.540000	0.093728
	14.545000	0.145302
	14.550000	0.216216
	14.555000	0.180759
	14.560000	0.106622
	14.565000	0.142079
	14.570000	0.225886
	14.575000	0.183982
	14.580000	0.103398
	14.585000	0.145302
	14.590000	0.225886
	14.595000	0.183982
	14.600000	0.106622
	14.605000	0.145302
	14.610000	0.229109
	14.615000	0.190429
	14.620000	0.109845
	14.625000	0.148525
	14.630000	0.225886
	14.635000	0.193652
	14.640000	0.113068
	14.645000	0.148525
	14.650000	0.232333
	14.655000	0.203322
	14.660000	0.116292
	14.665000	0.154972
	14.670000	0.242003
	14.675000	0.200099
	14.680000	0.116292
	14.685000	0.158195
	14.690000	0.242003
	14.695000	0.196876
	14.700000	0.116292
	14.705000	0.164642
	14.710000	0.245226
	14.715000	0.206546
	14.720000	0.129185
	14.725000	0.167865
	14.730000	0.248449
	14.735000	0.216216
	14.740000	0.132408
	14.745000	0.174312
	14.750000	0.251673
	14.755000	0.219439
	14.760000	0.135632
	14.765000	0.171089
	14.770000	0.258119
	14.775000	0.219439
	14.780000	0.138855
	14.785000	0.180759
	14.790000	0.264566
	14.795000	0.232333
	14.800000	0.151749
	14.805000	0.190429
	14.810000	0.274236
	14.815000	0.242003
	14.820000	0.154972
	14.825000	0.200099
	14.830000	0.283906
	14.835000	0.251673
	14.840000	0.167865
	14.845000	0.206546
	14.850000	0.290353
	14.855000	0.254896
	14.860000	0.180759
	14.865000	0.216216
	14.870000	0.300023
	14.875000	0.267790
	14.880000	0.183982
	14.885000	0.229109
	14.890000	0.306470
	14.895000	0.267790
	14.900000	0.187206
	14.905000	0.229109
	14.910000	0.306470
	14.915000	0.267790
	14.920000	0.187206
	14.925000	0.225886
	14.930000	0.309693
	14.935000	0.274236
	14.940000	0.193652
	14.945000	0.232333
	14.950000	0.312917
	14.955000	0.274236
	14.960000	0.193652
	14.965000	0.229109
	14.970000	0.309693
	14.975000	0.283906
	14.980000	0.200099
	14.985000	0.229109
	14.990000	0.309693
	14.995000	0.274236
	15.000000	0.196876
	15.005000	0.222663
	15.010000	0.306470
	15.015000	0.271013
	15.020000	0.196876
	15.025000	0.225886
	15.030000	0.306470
	15.035000	0.271013
	15.040000	0.193652
	15.045000	0.219439
	15.050000	0.306470
	15.055000	0.264566
	15.060000	0.187206
	15.065000	0.216216
	15.070000	0.296800
	15.075000	0.267790
	15.080000	0.187206
	15.085000	0.216216
	15.090000	0.293576
	15.095000	0.261343
	15.100000	0.177536
	15.105000	0.206546
	15.110000	0.290353
	15.115000	0.248449
	15.120000	0.177536
	15.125000	0.206546
	15.130000	0.287130
	15.135000	0.248449
	15.140000	0.161419
	15.145000	0.193652
	15.150000	0.271013
	15.155000	0.235556
	15.160000	0.151749
	15.165000	0.180759
	15.170000	0.264566
	15.175000	0.229109
	15.180000	0.142079
	15.185000	0.167865
	15.190000	0.251673
	15.195000	0.212992
	15.200000	0.125962
	15.205000	0.154972
	15.210000	0.242003
	15.215000	0.203322
	15.220000	0.119515
	15.225000	0.142079
	15.230000	0.219439
	15.235000	0.190429
	15.240000	0.100175
	15.245000	0.125962
	15.250000	0.212992
	15.255000	0.174312
	15.260000	0.093728
	15.265000	0.119515
	15.270000	0.203322
	15.275000	0.174312
	15.280000	0.080835
	15.285000	0.109845
	15.290000	0.193652
	15.295000	0.158195
	15.300000	0.077611
	15.305000	0.106622
	15.310000	0.193652
	15.315000	0.158195
	15.320000	0.074388
	15.325000	0.093728
	15.330000	0.187206
	15.335000	0.154972
	15.340000	0.074388
	15.345000	0.103398
	15.350000	0.187206
	15.355000	0.164642
	15.360000	0.077611
	15.365000	0.100175
	15.370000	0.196876
	15.375000	0.161419
	15.380000	0.077611
	15.385000	0.116292
	15.390000	0.196876
	15.395000	0.167865
	15.400000	0.090505
	15.405000	0.113068
	15.410000	0.203322
	15.415000	0.174312
	15.420000	0.090505
	15.425000	0.119515
	15.430000	0.206546
	15.435000	0.180759
	15.440000	0.090505
	15.445000	0.125962
	15.450000	0.206546
	15.455000	0.180759
	15.460000	0.100175
	15.465000	0.122738
	15.470000	0.206546
	15.475000	0.183982
	15.480000	0.096952
	15.485000	0.125962
	15.490000	0.209769
	15.495000	0.177536
	15.500000	0.100175
	15.505000	0.125962
	15.510000	0.212992
	15.515000	0.187206
	15.520000	0.096952
	15.525000	0.125962
	15.530000	0.209769
	15.535000	0.180759
	15.540000	0.103398
	15.545000	0.125962
	15.550000	0.206546
	15.555000	0.180759
	15.560000	0.096952
	15.565000	0.125962
	15.570000	0.206546
	15.575000	0.183982
	15.580000	0.096952
	15.585000	0.116292
	15.590000	0.203322
	15.595000	0.180759
	15.600000	0.096952
	15.605000	0.125962
	15.610000	0.209769
	15.615000	0.183982
	15.620000	0.096952
	15.625000	0.116292
	15.630000	0.206546
	15.635000	0.180759
	15.640000	0.093728
	15.645000	0.122738
	15.650000	0.200099
	15.655000	0.174312
	15.660000	0.090505
	15.665000	0.116292
	15.670000	0.203322
	15.675000	0.183982
	15.680000	0.093728
	15.685000	0.116292
	15.690000	0.206546
	15.695000	0.177536
	15.700000	0.087281
	15.705000	0.122738
	15.710000	0.193652
	15.715000	0.183982
	15.720000	0.090505
	15.725000	0.119515
	15.730000	0.200099
	15.735000	0.183982
	15.740000	0.090505
	15.745000	0.116292
	15.750000	0.203322
	15.755000	0.180759
	15.760000	0.093728
	15.765000	0.116292
	15.770000	0.206546
	15.775000	0.180759
	15.780000	0.090505
	15.785000	0.113068
	15.790000	0.200099
	15.795000	0.187206
	15.800000	0.100175
	15.805000	0.109845
	15.810000	0.206546
	15.815000	0.183982
	15.820000	0.090505
	15.825000	0.116292
	15.830000	0.206546
	15.835000	0.187206
	15.840000	0.090505
	15.845000	0.113068
	15.850000	0.200099
	15.855000	0.187206
	15.860000	0.093728
	15.865000	0.109845
	15.870000	0.203322
	15.875000	0.180759
	15.880000	0.093728
	15.885000	0.116292
	15.890000	0.200099
	15.895000	0.183982
	15.900000	0.093728
	15.905000	0.116292
	15.910000	0.206546
	15.915000	0.180759
	15.920000	0.093728
	15.925000	0.116292
	15.930000	0.203322
	15.935000	0.187206
	15.940000	0.093728
	15.945000	0.109845
	15.950000	0.206546
	15.955000	0.183982
	15.960000	0.093728
	15.965000	0.116292
	15.970000	0.203322
	15.975000	0.180759
	15.980000	0.093728
	15.985000	0.116292
	15.990000	0.206546
	15.995000	0.183982
	16.000000	0.096952
	16.005000	0.113068
	16.010000	0.196876
	16.015000	0.180759
	16.020000	0.093728
	16.025000	0.113068
	16.030000	0.200099
	16.035000	0.183982
	16.040000	0.090505
	16.045000	0.109845
	16.050000	0.200099
	16.055000	0.187206
	16.060000	0.096952
	16.065000	0.113068
	16.070000	0.203322
	16.075000	0.187206
	16.080000	0.093728
	16.085000	0.116292
	16.090000	0.203322
	16.095000	0.187206
	16.100000	0.096952
	16.105000	0.113068
	16.110000	0.200099
	16.115000	0.180759
	16.120000	0.090505
	16.125000	0.113068
	16.130000	0.206546
	16.135000	0.187206
	16.140000	0.096952
	16.145000	0.106622
	16.150000	0.206546
	16.155000	0.187206
	16.160000	0.090505
	16.165000	0.113068
	16.170000	0.209769
	16.175000	0.193652
	16.180000	0.096952
	16.185000	0.116292
	16.190000	0.212992
	16.195000	0.190429
	16.200000	0.100175
	16.205000	0.109845
	16.210000	0.200099
	16.215000	0.190429
	16.220000	0.100175
	16.225000	0.113068
	16.230000	0.206546
	16.235000	0.187206
	16.240000	0.096952
	16.245000	0.116292
	16.250000	0.206546
	16.255000	0.190429
	16.260000	0.096952
	16.265000	0.113068
	16.270000	0.209769
	16.275000	0.193652
	16.280000	0.100175
	16.285000	0.113068
	16.290000	0.206546
	16.295000	0.190429
	16.300000	0.103398
	16.305000	0.113068
	16.310000	0.209769
	16.315000	0.196876
	16.320000	0.100175
	16.325000	0.116292
	16.330000	0.206546
	16.335000	0.200099
	16.340000	0.100175
	16.345000	0.119515
	16.350000	0.209769
	16.355000	0.193652
	16.360000	0.103398
	16.365000	0.113068
	16.370000	0.209769
	16.375000	0.193652
	16.380000	0.103398
	16.385000	0.116292
	16.390000	0.209769
	16.395000	0.193652
	16.400000	0.096952
	16.405000	0.122738
	16.410000	0.203322
	16.415000	0.196876
	16.420000	0.106622
	16.425000	0.116292
	16.430000	0.209769
	16.435000	0.193652
	16.440000	0.106622
	16.445000	0.116292
	16.450000	0.206546
	16.455000	0.200099
	16.460000	0.106622
	16.465000	0.125962
	16.470000	0.206546
	16.475000	0.203322
	16.480000	0.103398
	16.485000	0.116292
	16.490000	0.206546
	16.495000	0.196876
	16.500000	0.103398
	16.505000	0.116292
	16.510000	0.209769
	16.515000	0.200099
	16.520000	0.106622
	16.525000	0.116292
	16.530000	0.209769
	16.535000	0.200099
	16.540000	0.100175
	16.545000	0.116292
	16.550000	0.209769
	16.555000	0.196876
	16.560000	0.106622
	16.565000	0.119515
	16.570000	0.209769
	16.575000	0.200099
	16.580000	0.113068
	16.585000	0.119515
	16.590000	0.209769
	16.595000	0.200099
	16.600000	0.103398
	16.605000	0.113068
	16.610000	0.209769
	16.615000	0.200099
	16.620000	0.100175
	16.625000	0.116292
	16.630000	0.209769
	16.635000	0.200099
	16.640000	0.103398
	16.645000	0.116292
	16.650000	0.212992
	16.655000	0.200099
	16.660000	0.106622
	16.665000	0.113068
	16.670000	0.209769
	16.675000	0.200099
	16.680000	0.106622
	16.685000	0.119515
	16.690000	0.206546
	16.695000	0.200099
	16.700000	0.113068
	16.705000	0.119515
	16.710000	0.209769
	16.715000	0.200099
	16.720000	0.113068
	16.725000	0.109845
	16.730000	0.206546
	16.735000	0.203322
	16.740000	0.106622
	16.745000	0.116292
	16.750000	0.206546
	16.755000	0.200099
	16.760000	0.109845
	16.765000	0.116292
	16.770000	0.209769
	16.775000	0.200099
	16.780000	0.106622
	16.785000	0.119515
	16.790000	0.209769
	16.795000	0.203322
	16.800000	0.106622
	16.805000	0.122738
	16.810000	0.212992
	16.815000	0.203322
	16.820000	0.113068
	16.825000	0.119515
	16.830000	0.209769
	16.835000	0.209769
	16.840000	0.116292
	16.845000	0.122738
	16.850000	0.212992
	16.855000	0.209769
	16.860000	0.116292
	16.865000	0.122738
	16.870000	0.212992
	16.875000	0.216216
	16.880000	0.125962
	16.885000	0.125962
	16.890000	0.225886
	16.895000	0.216216
	16.900000	0.122738
	16.905000	0.132408
	16.910000	0.225886
	16.915000	0.219439
	16.920000	0.129185
	16.925000	0.132408
	16.930000	0.225886
	16.935000	0.225886
	16.940000	0.125962
	16.945000	0.132408
	16.950000	0.229109
	16.955000	0.225886
	16.960000	0.129185
	16.965000	0.142079
	16.970000	0.235556
	16.975000	0.232333
	16.980000	0.145302
	16.985000	0.154972
	16.990000	0.235556
	16.995000	0.238779
	17.000000	0.154972
	17.005000	0.154972
	17.010000	0.251673
	17.015000	0.248449
	17.020000	0.154972
	17.025000	0.164642
	17.030000	0.258119
	17.035000	0.258119
	17.040000	0.167865
	17.045000	0.167865
	17.050000	0.261343
	17.055000	0.264566
	17.060000	0.171089
	17.065000	0.180759
	17.070000	0.271013
	17.075000	0.274236
	17.080000	0.187206
	17.085000	0.187206
	17.090000	0.280683
	17.095000	0.290353
	17.100000	0.196876
	17.105000	0.206546
	17.110000	0.293576
	17.115000	0.300023
	17.120000	0.212992
	17.125000	0.219439
	17.130000	0.303247
	17.135000	0.306470
	17.140000	0.212992
	17.145000	0.222663
	17.150000	0.309693
	17.155000	0.312917
	17.160000	0.222663
	17.165000	0.216216
	17.170000	0.309693
	17.175000	0.309693
	17.180000	0.219439
	17.185000	0.222663
	17.190000	0.309693
	17.195000	0.312917
	17.200000	0.216216
	17.205000	0.219439
	17.210000	0.309693
	17.215000	0.312917
	17.220000	0.219439
	17.225000	0.229109
	17.230000	0.309693
	17.235000	0.312917
	17.240000	0.222663
	17.245000	0.222663
	17.250000	0.309693
	17.255000	0.309693
	17.260000	0.222663
	17.265000	0.219439
	17.270000	0.303247
	17.275000	0.306470
	17.280000	0.222663
	17.285000	0.222663
	17.290000	0.309693
	17.295000	0.306470
	17.300000	0.216216
	17.305000	0.212992
	17.310000	0.306470
	17.315000	0.303247
	17.320000	0.216216
	17.325000	0.209769
	17.330000	0.303247
	17.335000	0.293576
	17.340000	0.203322
	17.345000	0.206546
	17.350000	0.293576
	17.355000	0.300023
	17.360000	0.206546
	17.365000	0.203322
	17.370000	0.290353
	17.375000	0.287130
	17.380000	0.206546
	17.385000	0.203322
	17.390000	0.277460
	17.395000	0.287130
	17.400000	0.193652
	17.405000	0.187206
	17.410000	0.271013
	17.415000	0.267790
	17.420000	0.180759
	17.425000	0.167865
	17.430000	0.254896
	17.435000	0.254896
	17.440000	0.167865
	17.445000	0.158195
	17.450000	0.238779
	17.455000	0.242003
	17.460000	0.148525
	17.465000	0.142079
	17.470000	0.225886
	17.475000	0.222663
	17.480000	0.129185
	17.485000	0.125962
	17.490000	0.206546
	17.495000	0.209769
	17.500000	0.119515
	17.505000	0.106622
	17.510000	0.203322
	17.515000	0.206546
	17.520000	0.109845
	17.525000	0.103398
	17.530000	0.187206
	17.535000	0.200099
	17.540000	0.100175
	17.545000	0.100175
	17.550000	0.180759
	17.555000	0.193652
	17.560000	0.096952
	17.565000	0.090505
	17.570000	0.187206
	17.575000	0.190429
	17.580000	0.100175
	17.585000	0.093728
	17.590000	0.183982
	17.595000	0.187206
	17.600000	0.100175
	17.605000	0.096952
	17.610000	0.190429
	17.615000	0.193652
	17.620000	0.103398
	17.625000	0.100175
	17.630000	0.183982
	17.635000	0.196876
	17.640000	0.109845
	17.645000	0.096952
	17.650000	0.193652
	17.655000	0.196876
	17.660000	0.113068
	17.665000	0.100175
	17.670000	0.190429
	17.675000	0.200099
	17.680000	0.103398
	17.685000	0.093728
	17.690000	0.190429
	17.695000	0.200099
	17.700000	0.109845
	17.705000	0.103398
	17.710000	0.193652
	17.715000	0.193652
	17.720000	0.103398
	17.725000	0.100175
	17.730000	0.187206
	17.735000	0.203322
	17.740000	0.109845
	17.745000	0.103398
	17.750000	0.190429
	17.755000	0.200099
	17.760000	0.106622
	17.765000	0.106622
	17.770000	0.190429
	17.775000	0.206546
	17.780000	0.106622
	17.785000	0.100175
	17.790000	0.187206
	17.795000	0.203322
	17.800000	0.106622
	17.805000	0.100175
	17.810000	0.183982
	17.815000	0.203322
	17.820000	0.109845
	17.825000	0.096952
	17.830000	0.187206
	17.835000	0.200099
	17.840000	0.109845
	17.845000	0.100175
	17.850000	0.190429
	17.855000	0.193652
	17.860000	0.106622
	17.865000	0.103398
	17.870000	0.183982
	17.875000	0.203322
	17.880000	0.106622
	17.885000	0.096952
	17.890000	0.187206
	17.895000	0.196876
	17.900000	0.106622
	17.905000	0.096952
	17.910000	0.187206
	17.915000	0.200099
	17.920000	0.100175
	17.925000	0.096952
	17.930000	0.187206
	17.935000	0.196876
	17.940000	0.106622
	17.945000	0.096952
	17.950000	0.193652
	17.955000	0.196876
	17.960000	0.113068
	17.965000	0.090505
	17.970000	0.190429
	17.975000	0.200099
	17.980000	0.106622
	17.985000	0.100175
	17.990000	0.183982
	17.995000	0.200099
	18.000000	0.109845
	18.005000	0.096952
	18.010000	0.190429
	18.015000	0.196876
	18.020000	0.103398
	18.025000	0.090505
	18.030000	0.180759
	18.035000	0.203322
	18.040000	0.113068
	18.045000	0.096952
	18.050000	0.190429
	18.055000	0.206546
	18.060000	0.106622
	18.065000	0.093728
	18.070000	0.183982
	18.075000	0.203322
	18.080000	0.106622
	18.085000	0.096952
	18.090000	0.183982
	18.095000	0.206546
	18.100000	0.106622
	18.105000	0.096952
	18.110000	0.180759
	18.115000	0.203322
	18.120000	0.103398
	18.125000	0.096952
	18.130000	0.183982
	18.135000	0.203322
	18.140000	0.113068
	18.145000	0.096952
	18.150000	0.180759
	18.155000	0.196876
	18.160000	0.106622
	18.165000	0.090505
	18.170000	0.187206
	18.175000	0.206546
	18.180000	0.113068
	18.185000	0.096952
	18.190000	0.190429
	18.195000	0.203322
	18.200000	0.109845
	18.205000	0.096952
	18.210000	0.187206
	18.215000	0.206546
	18.220000	0.116292
	18.225000	0.096952
	18.230000	0.187206
	18.235000	0.206546
	18.240000	0.116292
	18.245000	0.103398
	18.250000	0.190429
	18.255000	0.206546
	18.260000	0.122738
	18.265000	0.096952
	18.270000	0.190429
	18.275000	0.209769
	18.280000	0.116292
	18.285000	0.093728
	18.290000	0.183982
	18.295000	0.209769
	18.300000	0.116292
	18.305000	0.100175
	18.310000	0.187206
	18.315000	0.209769
	18.320000	0.125962
	18.325000	0.103398
	18.330000	0.183982
	18.335000	0.206546
	18.340000	0.119515
	18.345000	0.096952
	18.350000	0.183982
	18.355000	0.209769
	18.360000	0.119515
	18.365000	0.103398
	18.370000	0.200099
	18.375000	0.212992
	18.380000	0.125962
	18.385000	0.093728
	18.390000	0.180759
	18.395000	0.212992
	18.400000	0.116292
	18.405000	0.100175
	18.410000	0.193652
	18.415000	0.216216
	18.420000	0.116292
	18.425000	0.100175
	18.430000	0.193652
	18.435000	0.212992
	18.440000	0.122738
	18.445000	0.100175
	18.450000	0.190429
	18.455000	0.216216
	18.460000	0.122738
	18.465000	0.100175
	18.470000	0.193652
	18.475000	0.212992
	18.480000	0.122738
	18.485000	0.103398
	18.490000	0.196876
	18.495000	0.209769
	18.500000	0.125962
	18.505000	0.100175
	18.510000	0.193652
	18.515000	0.209769
	18.520000	0.125962
	18.525000	0.106622
	18.530000	0.190429
	18.535000	0.209769
	18.540000	0.125962
	18.545000	0.100175
	18.550000	0.187206
	18.555000	0.212992
	18.560000	0.125962
	18.565000	0.096952
	18.570000	0.190429
	18.575000	0.222663
	18.580000	0.122738
	18.585000	0.109845
	18.590000	0.193652
	18.595000	0.219439
	18.600000	0.116292
	18.605000	0.096952
	18.610000	0.193652
	18.615000	0.209769
	18.620000	0.125962
	18.625000	0.109845
	18.630000	0.190429
	18.635000	0.212992
	18.640000	0.129185
	18.645000	0.096952
	18.650000	0.196876
	18.655000	0.222663
	18.660000	0.129185
	18.665000	0.103398
	18.670000	0.190429
	18.675000	0.212992
	18.680000	0.135632
	18.685000	0.100175
	18.690000	0.200099
	18.695000	0.219439
	18.700000	0.129185
	18.705000	0.100175
	18.710000	0.187206
	18.715000	0.212992
	18.720000	0.125962
	18.725000	0.103398
	18.730000	0.193652
	18.735000	0.219439
	18.740000	0.132408
	18.745000	0.100175
	18.750000	0.193652
	18.755000	0.216216
	18.760000	0.135632
	18.765000	0.106622
	18.770000	0.190429
	18.775000	0.219439
	18.780000	0.132408
	18.785000	0.100175
	18.790000	0.187206
	18.795000	0.216216
	18.800000	0.129185
	18.805000	0.096952
	18.810000	0.190429
	18.815000	0.225886
	18.820000	0.132408
	18.825000	0.103398
	18.830000	0.193652
	18.835000	0.212992
	18.840000	0.129185
	18.845000	0.100175
	18.850000	0.187206
	18.855000	0.222663
	18.860000	0.132408
	18.865000	0.103398
	18.870000	0.187206
	18.875000	0.216216
	18.880000	0.132408
	18.885000	0.106622
	18.890000	0.193652
	18.895000	0.216216
	18.900000	0.132408
	18.905000	0.103398
	18.910000	0.190429
	18.915000	0.216216
	18.920000	0.132408
	18.925000	0.103398
	18.930000	0.190429
	18.935000	0.216216
	18.940000	0.132408
	18.945000	0.103398
	18.950000	0.196876
	18.955000	0.222663
	18.960000	0.129185
	18.965000	0.100175
	18.970000	0.187206
	18.975000	0.222663
	18.980000	0.135632
	18.985000	0.109845
	18.990000	0.190429
	18.995000	0.219439
	19.000000	0.132408
	19.005000	0.106622
	19.010000	0.193652
	19.015000	0.225886
	19.020000	0.135632
	19.025000	0.100175
	19.030000	0.193652
	19.035000	0.225886
	19.040000	0.129185
	19.045000	0.109845
	19.050000	0.190429
	19.055000	0.222663
	19.060000	0.138855
	19.065000	0.100175
	19.070000	0.187206
	19.075000	0.222663
	19.080000	0.135632
	19.085000	0.106622
	19.090000	0.193652
	19.095000	0.225886
	19.100000	0.135632
	19.105000	0.100175
	19.110000	0.190429
	19.115000	0.222663
	19.120000	0.138855
	19.125000	0.106622
	19.130000	0.190429
	19.135000	0.222663
	19.140000	0.132408
	19.145000	0.103398
	19.150000	0.190429
	19.155000	0.229109
	19.160000	0.138855
	19.165000	0.109845
	19.170000	0.190429
	19.175000	0.225886
	19.180000	0.138855
	19.185000	0.103398
	19.190000	0.193652
	19.195000	0.229109
	19.200000	0.138855
	19.205000	0.103398
	19.210000	0.190429
	19.215000	0.225886
	19.220000	0.135632
	19.225000	0.100175
	19.230000	0.187206
	19.235000	0.225886
	19.240000	0.145302
	19.245000	0.109845
	19.250000	0.193652
	19.255000	0.232333
	19.260000	0.151749
	19.265000	0.113068
	19.270000	0.203322
	19.275000	0.238779
	19.280000	0.154972
	19.285000	0.129185
	19.290000	0.209769
	19.295000	0.248449
	19.300000	0.161419
	19.305000	0.135632
	19.310000	0.212992
	19.315000	0.248449
	19.320000	0.177536
	19.325000	0.142079
	19.330000	0.225886
	19.335000	0.264566
	19.340000	0.187206
	19.345000	0.161419
	19.350000	0.238779
	19.355000	0.277460
	19.360000	0.193652
	19.365000	0.161419
	19.370000	0.245226
	19.375000	0.283906
	19.380000	0.216216
	19.385000	0.174312
	19.390000	0.264566
	19.395000	0.300023
	19.400000	0.225886
	19.405000	0.183982
	19.410000	0.271013
	19.415000	0.312917
	19.420000	0.232333
	19.425000	0.196876
	19.430000	0.283906
	19.435000	0.322587
	19.440000	0.245226
	19.445000	0.206546
	19.450000	0.287130
	19.455000	0.322587
	19.460000	0.238779
	19.465000	0.200099
	19.470000	0.287130
	19.475000	0.319363
	19.480000	0.238779
	19.485000	0.206546
	19.490000	0.280683
	19.495000	0.322587
	19.500000	0.242003
	19.505000	0.206546
	19.510000	0.280683
	19.515000	0.322587
	19.520000	0.235556
	19.525000	0.193652
	19.530000	0.271013
	19.535000	0.316140
	19.540000	0.242003
	19.545000	0.196876
	19.550000	0.274236
	19.555000	0.309693
	19.560000	0.235556
	19.565000	0.190429
	19.570000	0.267790
	19.575000	0.306470
	19.580000	0.229109
	19.585000	0.183982
	19.590000	0.267790
	19.595000	0.306470
	19.600000	0.229109
	19.605000	0.183982
	19.610000	0.261343
	19.615000	0.306470
	19.620000	0.229109
	19.625000	0.183982
	19.630000	0.254896
	19.635000	0.293576
	19.640000	0.222663
	19.645000	0.180759
	19.650000	0.261343
	19.655000	0.296800
	19.660000	0.219439
	19.665000	0.180759
	19.670000	0.254896
	19.675000	0.303247
	19.680000	0.225886
	19.685000	0.183982
	19.690000	0.264566
	19.695000	0.303247
	19.700000	0.222663
	19.705000	0.183982
	19.710000	0.264566
	19.715000	0.300023
	19.720000	0.225886
	19.725000	0.187206
	19.730000	0.258119
	19.735000	0.306470
	19.740000	0.225886
	19.745000	0.183982
	19.750000	0.258119
	19.755000	0.303247
	19.760000	0.225886
	19.765000	0.177536
	19.770000	0.245226
	19.775000	0.296800
	19.780000	0.212992
	19.785000	0.171089
	19.790000	0.238779
	19.795000	0.283906
	19.800000	0.196876
	19.805000	0.148525
	19.810000	0.225886
	19.815000	0.264566
	19.820000	0.180759
	19.825000	0.135632
	19.830000	0.200099
	19.835000	0.245226
	19.840000	0.174312
	19.845000	0.116292
	19.850000	0.193652
	19.855000	0.229109
	19.860000	0.154972
	19.865000	0.106622
	19.870000	0.174312
	19.875000	0.219439
	19.880000	0.142079
	19.885000	0.090505
	19.890000	0.164642
	19.895000	0.206546
	19.900000	0.135632
	19.905000	0.084058
	19.910000	0.154972
	19.915000	0.206546
	19.920000	0.122738
	19.925000	0.080835
	19.930000	0.154972
	19.935000	0.206546
	19.940000	0.125962
	19.945000	0.080835
	19.950000	0.158195
	19.955000	0.203322
	19.960000	0.132408
	19.965000	0.084058
	19.970000	0.154972
	19.975000	0.206546
	19.980000	0.132408
	19.985000	0.087281
	19.990000	0.164642
	19.995000	0.206546
	20.000000	0.132408
	20.005000	0.087281
	20.010000	0.164642
	20.015000	0.209769
	20.020000	0.142079
	20.025000	0.093728
	20.030000	0.167865
	20.035000	0.212992
	20.040000	0.142079
	20.045000	0.090505
	20.050000	0.161419
	20.055000	0.222663
	20.060000	0.142079
	20.065000	0.093728
	20.070000	0.164642
	20.075000	0.219439
	20.080000	0.138855
	20.085000	0.093728
	20.090000	0.164642
	20.095000	0.216216
	20.100000	0.142079
	20.105000	0.093728
	20.110000	0.164642
	20.115000	0.212992
	20.120000	0.142079
	20.125000	0.084058
	20.130000	0.167865
	20.135000	0.216216
	20.140000	0.138855
	20.145000	0.087281
	20.150000	0.164642
	20.155000	0.212992
	20.160000	0.135632
	20.165000	0.087281
	20.170000	0.158195
	20.175000	0.212992
	20.180000	0.138855
	20.185000	0.090505
	20.190000	0.167865
	20.195000	0.212992
	20.200000	0.135632
	20.205000	0.084058
	20.210000	0.161419
	20.215000	0.206546
	20.220000	0.135632
	20.225000	0.087281
	20.230000	0.158195
	20.235000	0.212992
	20.240000	0.135632
	20.245000	0.080835
	20.250000	0.158195
	20.255000	0.212992
	20.260000	0.142079
	20.265000	0.087281
	20.270000	0.154972
	20.275000	0.212992
	20.280000	0.142079
	20.285000	0.084058
	20.290000	0.161419
	20.295000	0.209769
	20.300000	0.132408
	20.305000	0.087281
	20.310000	0.158195
	20.315000	0.209769
	20.320000	0.135632
	20.325000	0.087281
	20.330000	0.158195
	20.335000	0.209769
	20.340000	0.138855
	20.345000	0.077611
	20.350000	0.161419
	20.355000	0.212992
	20.360000	0.135632
	20.365000	0.087281
	20.370000	0.161419
	20.375000	0.212992
	20.380000	0.138855
	20.385000	0.084058
	20.390000	0.164642
	20.395000	0.216216
	20.400000	0.142079
	20.405000	0.090505
	20.410000	0.161419
	20.415000	0.212992
	20.420000	0.145302
	20.425000	0.087281
	20.430000	0.164642
	20.435000	0.219439
	20.440000	0.142079
	20.445000	0.093728
	20.450000	0.158195
	20.455000	0.212992
	20.460000	0.138855
	20.465000	0.084058
	20.470000	0.161419
	20.475000	0.219439
	20.480000	0.145302
	20.485000	0.084058
	20.490000	0.164642
	20.495000	0.216216
	20.500000	0.145302
	20.505000	0.090505
	20.510000	0.164642
	20.515000	0.216216
	20.520000	0.148525
	20.525000	0.090505
	20.530000	0.164642
	20.535000	0.219439
	20.540000	0.151749
	20.545000	0.087281
	20.550000	0.158195
	20.555000	0.219439
	20.560000	0.145302
	20.565000	0.090505
	20.570000	0.161419
	20.575000	0.216216
	20.580000	0.154972
	20.585000	0.093728
	20.590000	0.161419
	20.595000	0.229109
	20.600000	0.154972
	20.605000	0.093728
	20.610000	0.161419
	20.615000	0.222663
	20.620000	0.154972
	20.625000	0.087281
	20.630000	0.161419
	20.635000	0.222663
	20.640000	0.148525
	20.645000	0.090505
	20.650000	0.161419
	20.655000	0.219439
	20.660000	0.148525
	20.665000	0.093728
	20.670000	0.161419
	20.675000	0.219439
	20.680000	0.154972
	20.685000	0.087281
	20.690000	0.161419
	20.695000	0.222663
	20.700000	0.154972
	20.705000	0.100175
	20.710000	0.171089
	20.715000	0.225886
	20.720000	0.151749
	20.725000	0.093728
	20.730000	0.161419
	20.735000	0.219439
	20.740000	0.151749
	20.745000	0.100175
	20.750000	0.158195
	20.755000	0.229109
	20.760000	0.158195
	20.765000	0.093728
	20.770000	0.164642
	20.775000	0.225886
	20.780000	0.154972
	20.785000	0.093728
	20.790000	0.167865
	20.795000	0.229109
	20.800000	0.154972
	20.805000	0.100175
	20.810000	0.161419
	20.815000	0.222663
	20.820000	0.154972
	20.825000	0.096952
	20.830000	0.161419
	20.835000	0.229109
	20.840000	0.161419
	20.845000	0.096952
	20.850000	0.158195
	20.855000	0.225886
	20.860000	0.158195
	20.865000	0.093728
	20.870000	0.164642
	20.875000	0.222663
	20.880000	0.161419
	20.885000	0.096952
	20.890000	0.171089
	20.895000	0.225886
	20.900000	0.158195
	20.905000	0.100175
	20.910000	0.164642
	20.915000	0.229109
	20.920000	0.161419
	20.925000	0.103398
	20.930000	0.167865
	20.935000	0.222663
	20.940000	0.161419
	20.945000	0.096952
	20.950000	0.161419
	20.955000	0.225886
	20.960000	0.164642
	20.965000	0.093728
	20.970000	0.167865
	20.975000	0.229109
	20.980000	0.161419
	20.985000	0.093728
	20.990000	0.167865
	20.995000	0.232333
	21.000000	0.164642
	21.005000	0.096952
	21.010000	0.161419
	21.015000	0.235556
	21.020000	0.167865
	21.025000	0.100175
	21.030000	0.167865
	21.035000	0.229109
	21.040000	0.161419
	21.045000	0.100175
	21.050000	0.167865
	21.055000	0.225886
	21.060000	0.164642
	21.065000	0.106622
	21.070000	0.161419
	21.075000	0.229109
	21.080000	0.164642
	21.085000	0.100175
	21.090000	0.161419
	21.095000	0.232333
	21.100000	0.171089
	21.105000	0.103398
	21.110000	0.164642
	21.115000	0.225886
	21.120000	0.164642
	21.125000	0.103398
	21.130000	0.161419
	21.135000	0.225886
	21.140000	0.167865
	21.145000	0.096952
	21.150000	0.154972
	21.155000	0.225886
	21.160000	0.167865
	21.165000	0.096952
	21.170000	0.164642
	21.175000	0.225886
	21.180000	0.161419
	21.185000	0.096952
	21.190000	0.161419
	21.195000	0.229109
	21.200000	0.174312
	21.205000	0.100175
	21.210000	0.167865
	21.215000	0.225886
	21.220000	0.167865
	21.225000	0.096952
	21.230000	0.167865
	21.235000	0.225886
	21.240000	0.167865
	21.245000	0.096952
	21.250000	0.167865
	21.255000	0.232333
	21.260000	0.171089
	21.265000	0.103398
	21.270000	0.164642
	21.275000	0.232333
	21.280000	0.164642
	21.285000	0.103398
	21.290000	0.167865
	21.295000	0.229109
	21.300000	0.167865
	21.305000	0.106622
	21.310000	0.164642
	21.315000	0.229109
	21.320000	0.171089
	21.325000	0.106622
	21.330000	0.164642
	21.335000	0.232333
	21.340000	0.171089
	21.345000	0.100175
	21.350000	0.161419
	21.355000	0.229109
	21.360000	0.171089
	21.365000	0.103398
	21.370000	0.161419
	21.375000	0.229109
	21.380000	0.177536
	21.385000	0.100175
	21.390000	0.164642
	21.395000	0.229109
	21.400000	0.177536
	21.405000	0.096952
	21.410000	0.164642
	21.415000	0.229109
	21.420000	0.174312
	21.425000	0.103398
	21.430000	0.154972
	21.435000	0.242003
	21.440000	0.171089
	21.445000	0.103398
	21.450000	0.161419
	21.455000	0.229109
	21.460000	0.171089
	21.465000	0.100175
	21.470000	0.161419
	21.475000	0.232333
	21.480000	0.174312
	21.485000	0.103398
	21.490000	0.167865
	21.495000	0.232333
	21.500000	0.171089
	21.505000	0.103398
	21.510000	0.161419
	21.515000	0.225886
	21.520000	0.171089
	21.525000	0.103398
	21.530000	0.158195
	21.535000	0.229109
	21.540000	0.171089
	21.545000	0.096952
	21.550000	0.161419
	21.555000	0.225886
	21.560000	0.174312
	21.565000	0.103398
	21.570000	0.161419
	21.575000	0.232333
	21.580000	0.174312
	21.585000	0.103398
	21.590000	0.158195
	21.595000	0.229109
	21.600000	0.167865
	21.605000	0.103398
	21.610000	0.161419
	21.615000	0.229109
	21.620000	0.171089
	21.625000	0.100175
	21.630000	0.158195
	21.635000	0.232333
	21.640000	0.171089
	21.645000	0.096952
	21.650000	0.154972
	21.655000	0.232333
	21.660000	0.171089
	21.665000	0.100175
	21.670000	0.154972
	21.675000	0.229109
	21.680000	0.167865
	21.685000	0.093728
	21.690000	0.158195
	21.695000	0.225886
	21.700000	0.174312
	21.705000	0.100175
	21.710000	0.161419
	21.715000	0.225886
	21.720000	0.177536
	21.725000	0.093728
	21.730000	0.154972
	21.735000	0.229109
	21.740000	0.174312
	21.745000	0.096952
	21.750000	0.154972
	21.755000	0.229109
	21.760000	0.171089
	21.765000	0.106622
	21.770000	0.161419
	21.775000	0.229109
	21.780000	0.177536
	21.785000	0.100175
	21.790000	0.154972
	21.795000	0.229109
	21.800000	0.171089
	21.805000	0.096952
	21.810000	0.154972
	21.815000	0.229109
	21.820000	0.174312
	21.825000	0.096952
	21.830000	0.158195
	21.835000	0.225886
	21.840000	0.171089
	21.845000	0.106622
	21.850000	0.154972
	21.855000	0.225886
	21.860000	0.180759
	21.865000	0.103398
	21.870000	0.158195
	21.875000	0.229109
	21.880000	0.177536
	21.885000	0.103398
	21.890000	0.161419
	21.895000	0.235556
	21.900000	0.177536
	21.905000	0.109845
	21.910000	0.164642
	21.915000	0.242003
	21.920000	0.190429
	21.925000	0.125962
	21.930000	0.180759
	21.935000	0.254896
	21.940000	0.216216
	21.945000	0.142079
	21.950000	0.193652
	21.955000	0.277460
	21.960000	0.229109
	21.965000	0.154972
	21.970000	0.209769
	21.975000	0.287130
	21.980000	0.235556
	21.985000	0.164642
	21.990000	0.222663
	21.995000	0.296800
	22.000000	0.245226
	22.005000	0.171089
	22.010000	0.229109
	22.015000	0.303247
	22.020000	0.258119
	22.025000	0.180759
	22.030000	0.235556
	22.035000	0.316140
	22.040000	0.261343
	22.045000	0.193652
	22.050000	0.242003
	22.055000	0.322587
	22.060000	0.267790
	22.065000	0.196876
	22.070000	0.245226
	22.075000	0.329033
	22.080000	0.277460
	22.085000	0.203322
	22.090000	0.248449
	22.095000	0.325810
	22.100000	0.277460
	22.105000	0.196876
	22.110000	0.248449
	22.115000	0.322587
	22.120000	0.274236
	22.125000	0.203322
	22.130000	0.248449
	22.135000	0.319363
	22.140000	0.274236
	22.145000	0.200099
	22.150000	0.242003
	22.155000	0.319363
	22.160000	0.267790
	22.165000	0.196876
	22.170000	0.242003
	22.175000	0.312917
	22.180000	0.274236
	22.185000	0.190429
	22.190000	0.245226
	22.195000	0.309693
	22.200000	0.264566
	22.205000	0.190429
	22.210000	0.235556
	22.215000	0.309693
	22.220000	0.261343
	22.225000	0.183982
	22.230000	0.232333
	22.235000	0.303247
	22.240000	0.254896
	22.245000	0.180759
	22.250000	0.222663
	22.255000	0.300023
	22.260000	0.248449
	22.265000	0.177536
	22.270000	0.219439
	22.275000	0.293576
	22.280000	0.248449
	22.285000	0.171089
	22.290000	0.212992
	22.295000	0.283906
	22.300000	0.245226
	22.305000	0.164642
	22.310000	0.209769
	22.315000	0.277460
	22.320000	0.232333
	22.325000	0.154972
	22.330000	0.190429
	22.335000	0.264566
	22.340000	0.216216
	22.345000	0.142079
	22.350000	0.180759
	22.355000	0.245226
	22.360000	0.206546
	22.365000	0.125962
	22.370000	0.167865
	22.375000	0.235556
	22.380000	0.200099
	22.385000	0.116292
	22.390000	0.161419
	22.395000	0.238779
	22.400000	0.193652
	22.405000	0.116292
	22.410000	0.158195
	22.415000	0.229109
	22.420000	0.183982
	22.425000	0.109845
	22.430000	0.154972
	22.435000	0.225886
	22.440000	0.177536
	22.445000	0.103398
	22.450000	0.145302
	22.455000	0.219439
	22.460000	0.167865
	22.465000	0.093728
	22.470000	0.135632
	22.475000	0.216216
	22.480000	0.180759
	22.485000	0.096952
	22.490000	0.142079
	22.495000	0.219439
	22.500000	0.171089
	22.505000	0.103398
	22.510000	0.148525
	22.515000	0.216216
	22.520000	0.180759
	22.525000	0.106622
	22.530000	0.148525
	22.535000	0.229109
	22.540000	0.187206
	22.545000	0.113068
	22.550000	0.148525
	22.555000	0.235556
	22.560000	0.190429
	22.565000	0.116292
	22.570000	0.151749
	22.575000	0.238779
	22.580000	0.200099
	22.585000	0.119515
	22.590000	0.164642
	22.595000	0.242003
	22.600000	0.206546
	22.605000	0.125962
	22.610000	0.161419
	22.615000	0.245226
	22.620000	0.203322
	22.625000	0.122738
	22.630000	0.161419
	22.635000	0.242003
	22.640000	0.196876
	22.645000	0.119515
	22.650000	0.161419
	22.655000	0.238779
	22.660000	0.190429
	22.665000	0.113068
	22.670000	0.151749
	22.675000	0.229109
	22.680000	0.190429
	22.685000	0.106622
	22.690000	0.151749
	22.695000	0.229109
	22.700000	0.180759
	22.705000	0.103398
	22.710000	0.135632
	22.715000	0.219439
	22.720000	0.177536
	22.725000	0.096952
	22.730000	0.135632
	22.735000	0.219439
	22.740000	0.174312
	22.745000	0.093728
	22.750000	0.138855
	22.755000	0.212992
	22.760000	0.177536
	22.765000	0.096952
	22.770000	0.132408
	22.775000	0.212992
	22.780000	0.171089
	22.785000	0.093728
	22.790000	0.125962
	22.795000	0.209769
	22.800000	0.171089
	22.805000	0.087281
	22.810000	0.129185
	22.815000	0.209769
	22.820000	0.171089
	22.825000	0.084058
	22.830000	0.125962
	22.835000	0.209769
	22.840000	0.167865
	22.845000	0.090505
	22.850000	0.125962
	22.855000	0.216216
	22.860000	0.167865
	22.865000	0.090505
	22.870000	0.125962
	22.875000	0.212992
	22.880000	0.174312
	22.885000	0.090505
	22.890000	0.129185
	22.895000	0.209769
	22.900000	0.177536
	22.905000	0.093728
	22.910000	0.132408
	22.915000	0.212992
	22.920000	0.180759
	22.925000	0.093728
	22.930000	0.132408
	22.935000	0.209769
	22.940000	0.177536
	22.945000	0.100175
	22.950000	0.129185
	22.955000	0.206546
	22.960000	0.174312
	22.965000	0.093728
	22.970000	0.132408
	22.975000	0.216216
	22.980000	0.174312
	22.985000	0.096952
	22.990000	0.132408
	22.995000	0.216216
	23.000000	0.177536
	23.005000	0.090505
	23.010000	0.125962
	23.015000	0.212992
	23.020000	0.171089
	23.025000	0.093728
	23.030000	0.135632
	23.035000	0.212992
	23.040000	0.183982
	23.045000	0.096952
	23.050000	0.132408
	23.055000	0.212992
	23.060000	0.183982
	23.065000	0.090505
	23.070000	0.129185
	23.075000	0.216216
	23.080000	0.177536
	23.085000	0.096952
	23.090000	0.125962
	23.095000	0.219439
	23.100000	0.180759
	23.105000	0.100175
	23.110000	0.135632
	23.115000	0.216216
	23.120000	0.180759
	23.125000	0.096952
	23.130000	0.135632
	23.135000	0.216216
	23.140000	0.180759
	23.145000	0.103398
	23.150000	0.125962
	23.155000	0.216216
	23.160000	0.183982
	23.165000	0.103398
	23.170000	0.132408
	23.175000	0.219439
	23.180000	0.183982
	23.185000	0.093728
	23.190000	0.132408
	23.195000	0.216216
	23.200000	0.180759
	23.205000	0.096952
	23.210000	0.129185
	23.215000	0.219439
	23.220000	0.187206
	23.225000	0.100175
	23.230000	0.125962
	23.235000	0.216216
	23.240000	0.187206
	23.245000	0.096952
	23.250000	0.132408
	23.255000	0.219439
	23.260000	0.183982
	23.265000	0.096952
	23.270000	0.132408
	23.275000	0.219439
	23.280000	0.190429
	23.285000	0.103398
	23.290000	0.132408
	23.295000	0.219439
	23.300000	0.190429
	23.305000	0.103398
	23.310000	0.132408
	23.315000	0.219439
	23.320000	0.200099
	23.325000	0.103398
	23.330000	0.135632
	23.335000	0.219439
	23.340000	0.190429
	23.345000	0.106622
	23.350000	0.132408
	23.355000	0.219439
	23.360000	0.193652
	23.365000	0.103398
	23.370000	0.138855
	23.375000	0.222663
	23.380000	0.190429
	23.385000	0.106622
	23.390000	0.135632
	23.395000	0.222663
	23.400000	0.196876
	23.405000	0.106622
	23.410000	0.135632
	23.415000	0.225886
	23.420000	0.187206
	23.425000	0.103398
	23.430000	0.129185
	23.435000	0.219439
	23.440000	0.190429
	23.445000	0.109845
	23.450000	0.138855
	23.455000	0.222663
	23.460000	0.196876
	23.465000	0.100175
	23.470000	0.138855
	23.475000	0.225886
	23.480000	0.193652
	23.485000	0.113068
	23.490000	0.135632
	23.495000	0.219439
	23.500000	0.196876
	23.505000	0.100175
	23.510000	0.132408
	23.515000	0.225886
	23.520000	0.193652
	23.525000	0.106622
	23.530000	0.135632
	23.535000	0.222663
	23.540000	0.196876
	23.545000	0.113068
	23.550000	0.129185
	23.555000	0.225886
	23.560000	0.200099
	23.565000	0.116292
	23.570000	0.132408
	23.575000	0.219439
	23.580000	0.196876
	23.585000	0.106622
	23.590000	0.135632
	23.595000	0.219439
	23.600000	0.196876
	23.605000	0.109845
	23.610000	0.135632
	23.615000	0.219439
	23.620000	0.200099
	23.625000	0.106622
	23.630000	0.138855
	23.635000	0.222663
	23.640000	0.203322
	23.645000	0.106622
	23.650000	0.135632
	23.655000	0.225886
	23.660000	0.196876
	23.665000	0.109845
	23.670000	0.132408
	23.675000	0.219439
	23.680000	0.193652
	23.685000	0.109845
	23.690000	0.135632
	23.695000	0.225886
	23.700000	0.203322
	23.705000	0.109845
	23.710000	0.135632
	23.715000	0.225886
	23.720000	0.203322
	23.725000	0.106622
	23.730000	0.129185
	23.735000	0.222663
	23.740000	0.196876
	23.745000	0.109845
	23.750000	0.129185
	23.755000	0.222663
	23.760000	0.206546
	23.765000	0.116292
	23.770000	0.132408
	23.775000	0.222663
	23.780000	0.203322
	23.785000	0.113068
	23.790000	0.135632
	23.795000	0.229109
	23.800000	0.206546
	23.805000	0.116292
	23.810000	0.132408
	23.815000	0.222663
	23.820000	0.200099
	23.825000	0.109845
	23.830000	0.132408
	23.835000	0.219439
	23.840000	0.200099
	23.845000	0.109845
	23.850000	0.135632
	23.855000	0.222663
	23.860000	0.206546
	23.865000	0.116292
	23.870000	0.132408
	23.875000	0.219439
	23.880000	0.203322
	23.885000	0.113068
	23.890000	0.129185
	23.895000	0.225886
	23.900000	0.200099
	23.905000	0.113068
	23.910000	0.135632
	23.915000	0.219439
	23.920000	0.200099
	23.925000	0.116292
	23.930000	0.132408
	23.935000	0.219439
	23.940000	0.206546
	23.945000	0.113068
	23.950000	0.132408
	23.955000	0.222663
	23.960000	0.203322
	23.965000	0.116292
	23.970000	0.129185
	23.975000	0.225886
	23.980000	0.203322
	23.985000	0.113068
	23.990000	0.129185
	23.995000	0.219439
	24.000000	0.206546
	24.005000	0.113068
	24.010000	0.129185
	24.015000	0.219439
	24.020000	0.206546
	24.025000	0.113068
	24.030000	0.135632
	24.035000	0.219439
	24.040000	0.203322
	24.045000	0.109845
	24.050000	0.132408
	24.055000	0.222663
	24.060000	0.203322
	24.065000	0.113068
	24.070000	0.129185
	24.075000	0.219439
	24.080000	0.200099
	24.085000	0.116292
	24.090000	0.132408
	24.095000	0.216216
	24.100000	0.203322
	24.105000	0.113068
	24.110000	0.129185
	24.115000	0.222663
	24.120000	0.206546
	24.125000	0.113068
	24.130000	0.132408
	24.135000	0.212992
	24.140000	0.203322
	24.145000	0.113068
	24.150000	0.132408
	24.155000	0.216216
	24.160000	0.200099
	24.165000	0.113068
	24.170000	0.132408
	24.175000	0.219439
	24.180000	0.209769
	24.185000	0.122738
	24.190000	0.132408
	24.195000	0.229109
	24.200000	0.216216
	24.205000	0.122738
	24.210000	0.135632
	24.215000	0.232333
	24.220000	0.219439
	24.225000	0.132408
	24.230000	0.145302
	24.235000	0.238779
	24.240000	0.232333
	24.245000	0.148525
	24.250000	0.164642
	24.255000	0.261343
	24.260000	0.248449
	24.265000	0.158195
	24.270000	0.174312
	24.275000	0.277460
	24.280000	0.261343
	24.285000	0.180759
	24.290000	0.196876
	24.295000	0.287130
	24.300000	0.280683
	24.305000	0.193652
	24.310000	0.206546
	24.315000	0.300023
	24.320000	0.296800
	24.325000	0.212992
	24.330000	0.219439
	24.335000	0.309693
	24.340000	0.303247
	24.345000	0.219439
	24.350000	0.232333
	24.355000	0.316140
	24.360000	0.309693
	24.365000	0.225886
	24.370000	0.245226
	24.375000	0.325810
	24.380000	0.316140
	24.385000	0.232333
	24.390000	0.238779
	24.395000	0.322587
	24.400000	0.319363
	24.405000	0.229109
	24.410000	0.232333
	24.415000	0.329033
	24.420000	0.322587
	24.425000	0.232333
	24.430000	0.235556
	24.435000	0.325810
	24.440000	0.319363
	24.445000	0.229109
	24.450000	0.238779
	24.455000	0.322587
	24.460000	0.319363
	24.465000	0.232333
	24.470000	0.242003
	24.475000	0.325810
	24.480000	0.319363
	24.485000	0.229109
	24.490000	0.238779
	24.495000	0.329033
	24.500000	0.316140
	24.505000	0.229109
	24.510000	0.245226
	24.515000	0.322587
	24.520000	0.312917
	24.525000	0.232333
	24.530000	0.238779
	24.535000	0.319363
	24.540000	0.319363
	24.545000	0.235556
	24.550000	0.238779
	24.555000	0.319363
	24.560000	0.316140
	24.565000	0.229109
	24.570000	0.232333
	24.575000	0.319363
	24.580000	0.316140
	24.585000	0.229109
	24.590000	0.229109
	24.595000	0.316140
	24.600000	0.309693
	24.605000	0.219439
	24.610000	0.222663
	24.615000	0.312917
	24.620000	0.303247
	24.625000	0.212992
	24.630000	0.219439
	24.635000	0.303247
	24.640000	0.283906
	24.645000	0.196876
	24.650000	0.196876
	24.655000	0.283906
	24.660000	0.271013
	24.665000	0.177536
	24.670000	0.177536
	24.675000	0.261343
	24.680000	0.248449
	24.685000	0.164642
	24.690000	0.161419
	24.695000	0.242003
	24.700000	0.235556
	24.705000	0.135632
	24.710000	0.138855
	24.715000	0.222663
	24.720000	0.222663
	24.725000	0.125962
	24.730000	0.122738
	24.735000	0.203322
	24.740000	0.200099
	24.745000	0.113068
	24.750000	0.106622
	24.755000	0.193652
	24.760000	0.187206
	24.765000	0.087281
	24.770000	0.096952
	24.775000	0.183982
	24.780000	0.183982
	24.785000	0.100175
	24.790000	0.096952
	24.795000	0.187206
	24.800000	0.187206
	24.805000	0.093728
	24.810000	0.100175
	24.815000	0.187206
	24.820000	0.193652
	24.825000	0.103398
	24.830000	0.103398
	24.835000	0.193652
	24.840000	0.190429
	24.845000	0.103398
	24.850000	0.103398
	24.855000	0.200099
	24.860000	0.193652
	24.865000	0.109845
	24.870000	0.109845
	24.875000	0.206546
	24.880000	0.203322
	24.885000	0.113068
	24.890000	0.119515
	24.895000	0.203322
	24.900000	0.206546
	24.905000	0.119515
	24.910000	0.116292
	24.915000	0.206546
	24.920000	0.206546
	24.925000	0.116292
	24.930000	0.119515
	24.935000	0.203322
	24.940000	0.212992
	24.945000	0.122738
	24.950000	0.119515
	24.955000	0.206546
	24.960000	0.203322
	24.965000	0.113068
	24.970000	0.113068
	24.975000	0.206546
	24.980000	0.209769
	24.985000	0.119515
	24.990000	0.119515
	24.995000	0.206546
	25.000000	0.209769
	25.005000	0.116292
	25.010000	0.109845
	25.015000	0.200099
	25.020000	0.203322
	25.025000	0.109845
	25.030000	0.109845
	25.035000	0.193652
	25.040000	0.200099
	25.045000	0.106622
	25.050000	0.109845
	25.055000	0.196876
	25.060000	0.196876
	25.065000	0.109845
	25.070000	0.109845
	25.075000	0.193652
	25.080000	0.203322
	25.085000	0.113068
	25.090000	0.106622
	25.095000	0.196876
	25.100000	0.196876
	25.105000	0.106622
	25.110000	0.103398
	25.115000	0.196876
	25.120000	0.196876
	25.125000	0.103398
	25.130000	0.100175
	25.135000	0.190429
	25.140000	0.200099
	25.145000	0.109845
	25.150000	0.103398
	25.155000	0.196876
	25.160000	0.196876
	25.165000	0.113068
	25.170000	0.103398
	25.175000	0.193652
	25.180000	0.196876
	25.185000	0.106622
	25.190000	0.103398
	25.195000	0.196876
	25.200000	0.206546
	25.205000	0.106622
	25.210000	0.106622
	25.215000	0.196876
	25.220000	0.203322
	25.225000	0.106622
	25.230000	0.100175
	25.235000	0.200099
	25.240000	0.200099
	25.245000	0.109845
	25.250000	0.106622
	25.255000	0.200099
	25.260000	0.209769
	25.265000	0.109845
	25.270000	0.103398
	25.275000	0.203322
	25.280000	0.200099
	25.285000	0.106622
	25.290000	0.106622
	25.295000	0.196876
	25.300000	0.193652
	25.305000	0.106622
	25.310000	0.106622
	25.315000	0.193652
	25.320000	0.206546
	25.325000	0.116292
	25.330000	0.103398
	25.335000	0.203322
	25.340000	0.206546
	25.345000	0.109845
	25.350000	0.106622
	25.355000	0.196876
	25.360000	0.200099
	25.365000	0.116292
	25.370000	0.103398
	25.375000	0.190429
	25.380000	0.209769
	25.385000	0.113068
	25.390000	0.106622
	25.395000	0.193652
	25.400000	0.206546
	25.405000	0.109845
	25.410000	0.106622
	25.415000	0.200099
	25.420000	0.203322
	25.425000	0.109845
	25.430000	0.113068
	25.435000	0.196876
	25.440000	0.206546
	25.445000	0.116292
	25.450000	0.103398
	25.455000	0.196876
	25.460000	0.209769
	25.465000	0.119515
	25.470000	0.109845
	25.475000	0.193652
	25.480000	0.200099
	25.485000	0.116292
	25.490000	0.106622
	25.495000	0.200099
	25.500000	0.212992
	25.505000	0.113068
	25.510000	0.109845
	25.515000	0.196876
	25.520000	0.209769
	25.525000	0.116292
	25.530000	0.106622
	25.535000	0.200099
	25.540000	0.212992
	25.545000	0.116292
	25.550000	0.113068
	25.555000	0.200099
	25.560000	0.206546
	25.565000	0.119515
	25.570000	0.106622
	25.575000	0.196876
	25.580000	0.212992
	25.585000	0.119515
	25.590000	0.113068
	25.595000	0.196876
	25.600000	0.216216
	25.605000	0.119515
	25.610000	0.106622
	25.615000	0.203322
	25.620000	0.209769
	25.625000	0.119515
	25.630000	0.109845
	25.635000	0.196876
	25.640000	0.222663
	25.645000	0.125962
	25.650000	0.109845
	25.655000	0.203322
	25.660000	0.216216
	25.665000	0.125962
	25.670000	0.116292
	25.675000	0.203322
	25.680000	0.219439
	25.685000	0.122738
	25.690000	0.106622
	25.695000	0.206546
	25.700000	0.216216
	25.705000	0.122738
	25.710000	0.106622
	25.715000	0.209769
	25.720000	0.216216
	25.725000	0.122738
	25.730000	0.113068
	25.735000	0.196876
	25.740000	0.222663
	25.745000	0.122738
	25.750000	0.109845
	25.755000	0.200099
	25.760000	0.219439
	25.765000	0.125962
	25.770000	0.113068
	25.775000	0.200099
	25.780000	0.216216
	25.785000	0.129185
	25.790000	0.109845
	25.795000	0.200099
	25.800000	0.219439
	25.805000	0.129185
	25.810000	0.113068
	25.815000	0.203322
	25.820000	0.216216
	25.825000	0.125962
	25.830000	0.116292
	25.835000	0.203322
	25.840000	0.216216
	25.845000	0.125962
	25.850000	0.113068
	25.855000	0.196876
	25.860000	0.219439
	25.865000	0.135632
	25.870000	0.109845
	25.875000	0.206546
	25.880000	0.219439
	25.885000	0.125962
	25.890000	0.109845
	25.895000	0.200099
	25.900000	0.216216
	25.905000	0.125962
	25.910000	0.113068
	25.915000	0.203322
	25.920000	0.219439
	25.925000	0.129185
	25.930000	0.106622
	25.935000	0.206546
	25.940000	0.219439
	25.945000	0.125962
	25.950000	0.113068
	25.955000	0.200099
	25.960000	0.222663
	25.965000	0.132408
	25.970000	0.109845
	25.975000	0.203322
	25.980000	0.225886
	25.985000	0.135632
	25.990000	0.113068
	25.995000	0.203322
	26.000000	0.219439
	26.005000	0.132408
	26.010000	0.109845
	26.015000	0.203322
	26.020000	0.222663
	26.025000	0.129185
	26.030000	0.109845
	26.035000	0.200099
	26.040000	0.225886
	26.045000	0.129185
	26.050000	0.113068
	26.055000	0.196876
	26.060000	0.222663
	26.065000	0.129185
	26.070000	0.109845
	26.075000	0.203322
	26.080000	0.219439
	26.085000	0.122738
	26.090000	0.113068
	26.095000	0.196876
	26.100000	0.219439
	26.105000	0.132408
	26.110000	0.113068
	26.115000	0.206546
	26.120000	0.219439
	26.125000	0.129185
	26.130000	0.113068
	26.135000	0.203322
	26.140000	0.225886
	26.145000	0.132408
	26.150000	0.106622
	26.155000	0.200099
	26.160000	0.222663
	26.165000	0.132408
	26.170000	0.113068
	26.175000	0.200099
	26.180000	0.222663
	26.185000	0.135632
	26.190000	0.103398
	26.195000	0.193652
	26.200000	0.222663
	26.205000	0.135632
	26.210000	0.109845
	26.215000	0.200099
	26.220000	0.222663
	26.225000	0.135632
	26.230000	0.106622
	26.235000	0.200099
	26.240000	0.212992
	26.245000	0.135632
	26.250000	0.113068
	26.255000	0.196876
	26.260000	0.222663
	26.265000	0.135632
	26.270000	0.109845
	26.275000	0.206546
	26.280000	0.219439
	26.285000	0.135632
	26.290000	0.119515
	26.295000	0.193652
	26.300000	0.219439
	26.305000	0.132408
	26.310000	0.109845
	26.315000	0.206546
	26.320000	0.222663
	26.325000	0.132408
	26.330000	0.109845
	26.335000	0.196876
	26.340000	0.222663
	26.345000	0.132408
	26.350000	0.106622
	26.355000	0.196876
	26.360000	0.222663
	26.365000	0.138855
	26.370000	0.113068
	26.375000	0.196876
	26.380000	0.225886
	26.385000	0.138855
	26.390000	0.113068
	26.395000	0.196876
	26.400000	0.225886
	26.405000	0.138855
	26.410000	0.113068
	26.415000	0.206546
	26.420000	0.222663
	26.425000	0.135632
	26.430000	0.116292
	26.435000	0.200099
	26.440000	0.225886
	26.445000	0.138855
	26.450000	0.109845
	26.455000	0.206546
	26.460000	0.229109
	26.465000	0.135632
	26.470000	0.119515
	26.475000	0.200099
	26.480000	0.232333
	26.485000	0.142079
	26.490000	0.109845
	26.495000	0.203322
	26.500000	0.229109
	26.505000	0.138855
	26.510000	0.116292
	26.515000	0.203322
	26.520000	0.225886
	26.525000	0.138855
	26.530000	0.113068
	26.535000	0.200099
	26.540000	0.232333
	26.545000	0.138855
	26.550000	0.109845
	26.555000	0.200099
	26.560000	0.229109
	26.565000	0.142079
	26.570000	0.106622
	26.575000	0.196876
	26.580000	0.222663
	26.585000	0.135632
	26.590000	0.113068
	26.595000	0.200099
	26.600000	0.229109
	26.605000	0.138855
	26.610000	0.109845
	26.615000	0.193652
	26.620000	0.222663
	26.625000	0.145302
	26.630000	0.109845
	26.635000	0.196876
	26.640000	0.222663
	26.645000	0.138855
	26.650000	0.106622
	26.655000	0.193652
	26.660000	0.232333
	26.665000	0.142079
	26.670000	0.109845
	26.675000	0.193652
	26.680000	0.225886
	26.685000	0.138855
	26.690000	0.106622
	26.695000	0.190429
	26.700000	0.229109
	26.705000	0.142079
	26.710000	0.113068
	26.715000	0.193652
	26.720000	0.229109
	26.725000	0.138855
	26.730000	0.109845
	26.735000	0.200099
	26.740000	0.225886
	26.745000	0.142079
	26.750000	0.103398
	26.755000	0.200099
	26.760000	0.229109
	26.765000	0.138855
	26.770000	0.113068
	26.775000	0.203322
	26.780000	0.219439
	26.785000	0.142079
	26.790000	0.106622
	26.795000	0.200099
	26.800000	0.222663
	26.805000	0.142079
	26.810000	0.109845
	26.815000	0.196876
	26.820000	0.225886
	26.825000	0.142079
	26.830000	0.109845
	26.835000	0.196876
	26.840000	0.222663
	26.845000	0.142079
	26.850000	0.109845
	26.855000	0.190429
	26.860000	0.229109
	26.865000	0.142079
	26.870000	0.109845
	26.875000	0.196876
	26.880000	0.232333
	26.885000	0.142079
	26.890000	0.109845
	26.895000	0.196876
	26.900000	0.225886
	26.905000	0.142079
	26.910000	0.109845
	26.915000	0.196876
	26.920000	0.225886
	26.925000	0.148525
	26.930000	0.109845
	26.935000	0.190429
	26.940000	0.235556
	26.945000	0.148525
	26.950000	0.113068
	26.955000	0.196876
	26.960000	0.222663
	26.965000	0.145302
	26.970000	0.106622
	26.975000	0.193652
	26.980000	0.232333
	26.985000	0.145302
	26.990000	0.109845
	26.995000	0.190429
	27.000000	0.232333
	27.005000	0.142079
	27.010000	0.109845
	27.015000	0.196876
	27.020000	0.229109
	27.025000	0.145302
	27.030000	0.113068
	27.035000	0.190429
	27.040000	0.225886
	27.045000	0.148525
	27.050000	0.109845
	27.055000	0.190429
	27.060000	0.232333
	27.065000	0.142079
	27.070000	0.109845
	27.075000	0.187206
	27.080000	0.235556
	27.085000	0.148525
	27.090000	0.109845
	27.095000	0.196876
	27.100000	0.229109
	27.105000	0.145302
	27.110000	0.106622
	27.115000	0.193652
	27.120000	0.238779
	27.125000	0.151749
	27.130000	0.113068
	27.135000	0.196876
	27.140000	0.229109
	27.145000	0.145302
	27.150000	0.113068
	27.155000	0.196876
	27.160000	0.232333
	27.165000	0.151749
	27.170000	0.106622
	27.175000	0.200099
	27.180000	0.232333
	27.185000	0.151749
	27.190000	0.109845
	27.195000	0.187206
	27.200000	0.232333
	27.205000	0.148525
	27.210000	0.109845
	27.215000	0.196876
	27.220000	0.235556
	27.225000	0.148525
	27.230000	0.109845
	27.235000	0.190429
	27.240000	0.235556
	27.245000	0.151749
	27.250000	0.106622
	27.255000	0.193652
	27.260000	0.232333
	27.265000	0.148525
	27.270000	0.106622
	27.275000	0.193652
	27.280000	0.232333
	27.285000	0.148525
	27.290000	0.109845
	27.295000	0.193652
	27.300000	0.229109
	27.305000	0.142079
	27.310000	0.103398
	27.315000	0.193652
	27.320000	0.235556
	27.325000	0.151749
	27.330000	0.113068
	27.335000	0.196876
	27.340000	0.229109
	27.345000	0.154972
	27.350000	0.113068
	27.355000	0.190429
	27.360000	0.235556
	27.365000	0.148525
	27.370000	0.106622
	27.375000	0.190429
	27.380000	0.232333
	27.385000	0.145302
	27.390000	0.116292
	27.395000	0.190429
	27.400000	0.232333
	27.405000	0.151749
	27.410000	0.106622
	27.415000	0.196876
	27.420000	0.232333
	27.425000	0.151749
	27.430000	0.109845
	27.435000	0.193652
	27.440000	0.235556
	27.445000	0.151749
	27.450000	0.109845
	27.455000	0.196876
	27.460000	0.238779
	27.465000	0.154972
	27.470000	0.106622
	27.475000	0.187206
	27.480000	0.229109
	27.485000	0.151749
	27.490000	0.106622
	27.495000	0.190429
	27.500000	0.235556
	27.505000	0.154972
	27.510000	0.106622
	27.515000	0.193652
	27.520000	0.229109
	27.525000	0.154972
	27.530000	0.113068
	27.535000	0.190429
	27.540000	0.232333
	27.545000	0.148525
	27.550000	0.106622
	27.555000	0.193652
	27.560000	0.238779
	27.565000	0.154972
	27.570000	0.113068
	27.575000	0.196876
	27.580000	0.235556
	27.585000	0.151749
	27.590000	0.106622
	27.595000	0.183982
	27.600000	0.235556
	27.605000	0.158195
	27.610000	0.109845
	27.615000	0.187206
	27.620000	0.235556
	27.625000	0.154972
	27.630000	0.113068
	27.635000	0.190429
	27.640000	0.235556
	27.645000	0.154972
	27.650000	0.113068
	27.655000	0.190429
	27.660000	0.238779
	27.665000	0.154972
	27.670000	0.109845
	27.675000	0.183982
	27.680000	0.232333
	27.685000	0.158195
	27.690000	0.116292
	27.695000	0.193652
	27.700000	0.232333
	27.705000	0.154972
	27.710000	0.113068
	27.715000	0.187206
	27.720000	0.232333
	27.725000	0.154972
	27.730000	0.106622
	27.735000	0.183982
	27.740000	0.242003
	27.745000	0.161419
	27.750000	0.116292
	27.755000	0.200099
	27.760000	0.251673
	27.765000	0.174312
	27.770000	0.135632
	27.775000	0.212992
	27.780000	0.258119
	27.785000	0.187206
	27.790000	0.151749
	27.795000	0.229109
	27.800000	0.274236
	27.805000	0.203322
	27.810000	0.161419
	27.815000	0.245226
	27.820000	0.293576
	27.825000	0.229109
	27.830000	0.180759
	27.835000	0.254896
	27.840000	0.312917
	27.845000	0.232333
	27.850000	0.193652
	27.855000	0.271013
	27.860000	0.316140
	27.865000	0.251673
	27.870000	0.206546
	27.875000	0.283906
	27.880000	0.335480
	27.885000	0.258119
	27.890000	0.212992
	27.895000	0.290353
	27.900000	0.341927
	27.905000	0.264566
	27.910000	0.222663
	27.915000	0.293576
	27.920000	0.348374
	27.925000	0.271013
	27.930000	0.219439
	27.935000	0.296800
	27.940000	0.341927
	27.945000	0.271013
	27.950000	0.222663
	27.955000	0.293576
	27.960000	0.338703
	27.965000	0.267790
	27.970000	0.219439
	27.975000	0.293576
	27.980000	0.338703
	27.985000	0.258119
	27.990000	0.216216
	27.995000	0.287130
	28.000000	0.335480
	28.005000	0.258119
	28.010000	0.203322
	28.015000	0.277460
	28.020000	0.329033
	28.025000	0.251673
	28.030000	0.206546
	28.035000	0.277460
	28.040000	0.319363
	28.045000	0.251673
	28.050000	0.200099
	28.055000	0.261343
	28.060000	0.319363
	28.065000	0.238779
	28.070000	0.190429
	28.075000	0.258119
	28.080000	0.309693
	28.085000	0.235556
	28.090000	0.183982
	28.095000	0.261343
	28.100000	0.309693
	28.105000	0.238779
	28.110000	0.187206
	28.115000	0.254896
	28.120000	0.303247
	28.125000	0.225886
	28.130000	0.180759
	28.135000	0.248449
	28.140000	0.296800
	28.145000	0.222663
	28.150000	0.167865
	28.155000	0.235556
	28.160000	0.277460
	28.165000	0.200099
	28.170000	0.151749
	28.175000	0.219439
	28.180000	0.261343
	28.185000	0.187206
	28.190000	0.129185
	28.195000	0.203322
	28.200000	0.251673
	28.205000	0.167865
	28.210000	0.119515
	28.215000	0.180759
	28.220000	0.238779
	28.225000	0.161419
	28.230000	0.106622
	28.235000	0.174312
	28.240000	0.232333
	28.245000	0.154972
	28.250000	0.100175
	28.255000	0.164642
	28.260000	0.222663
	28.265000	0.154972
	28.270000	0.100175
	28.275000	0.164642
	28.280000	0.216216
	28.285000	0.151749
	28.290000	0.090505
	28.295000	0.167865
	28.300000	0.225886
	28.305000	0.145302
	28.310000	0.096952
	28.315000	0.167865
	28.320000	0.219439
	28.325000	0.148525
	28.330000	0.096952
	28.335000	0.164642
	28.340000	0.225886
	28.345000	0.151749
	28.350000	0.090505
	28.355000	0.161419
	28.360000	0.219439
	28.365000	0.148525
	28.370000	0.096952
	28.375000	0.164642
	28.380000	0.229109
	28.385000	0.154972
	28.390000	0.103398
	28.395000	0.177536
	28.400000	0.225886
	28.405000	0.154972
	28.410000	0.100175
	28.415000	0.171089
	28.420000	0.225886
	28.425000	0.158195
	28.430000	0.106622
	28.435000	0.177536
	28.440000	0.229109
	28.445000	0.161419
	28.450000	0.103398
	28.455000	0.174312
	28.460000	0.229109
	28.465000	0.164642
	28.470000	0.103398
	28.475000	0.174312
	28.480000	0.229109
	28.485000	0.161419
	28.490000	0.106622
	28.495000	0.171089
	28.500000	0.232333
	28.505000	0.154972
	28.510000	0.103398
	28.515000	0.177536
	28.520000	0.229109
	28.525000	0.161419
	28.530000	0.106622
	28.535000	0.174312
	28.540000	0.232333
	28.545000	0.158195
	28.550000	0.106622
	28.555000	0.167865
	28.560000	0.229109
	28.565000	0.161419
	28.570000	0.100175
	28.575000	0.174312
	28.580000	0.232333
	28.585000	0.158195
	28.590000	0.093728
	28.595000	0.174312
	28.600000	0.225886
	28.605000	0.161419
	28.610000	0.096952
	28.615000	0.171089
	28.620000	0.229109
	28.625000	0.154972
	28.630000	0.100175
	28.635000	0.164642
	28.640000	0.222663
	28.645000	0.158195
	28.650000	0.093728
	28.655000	0.158195
	28.660000	0.222663
	28.665000	0.151749
	28.670000	0.093728
	28.675000	0.161419
	28.680000	0.216216
	28.685000	0.151749
	28.690000	0.096952
	28.695000	0.158195
	28.700000	0.222663
	28.705000	0.151749
	28.710000	0.100175
	28.715000	0.158195
	28.720000	0.222663
	28.725000	0.151749
	28.730000	0.096952
	28.735000	0.167865
	28.740000	0.222663
	28.745000	0.158195
	28.750000	0.093728
	28.755000	0.164642
	28.760000	0.225886
	28.765000	0.148525
	28.770000	0.096952
	28.775000	0.158195
	28.780000	0.222663
	28.785000	0.151749
	28.790000	0.096952
	28.795000	0.164642
	28.800000	0.229109
	28.805000	0.164642
	28.810000	0.096952
	28.815000	0.164642
	28.820000	0.229109
	28.825000	0.158195
	28.830000	0.093728
	28.835000	0.161419
	28.840000	0.229109
	28.845000	0.154972
	28.850000	0.100175
	28.855000	0.164642
	28.860000	0.225886
	28.865000	0.161419
	28.870000	0.096952
	28.875000	0.164642
	28.880000	0.225886
	28.885000	0.161419
	28.890000	0.103398
	28.895000	0.164642
	28.900000	0.232333
	28.905000	0.164642
	28.910000	0.096952
	28.915000	0.164642
	28.920000	0.229109
	28.925000	0.167865
	28.930000	0.096952
	28.935000	0.164642
	28.940000	0.232333
	28.945000	0.164642
	28.950000	0.103398
	28.955000	0.167865
	28.960000	0.229109
	28.965000	0.164642
	28.970000	0.096952
	28.975000	0.161419
	28.980000	0.229109
	28.985000	0.164642
	28.990000	0.096952
	28.995000	0.164642
	29.000000	0.225886
	29.005000	0.167865
	29.010000	0.100175
	29.015000	0.167865
	29.020000	0.229109
	29.025000	0.171089
	29.030000	0.103398
	29.035000	0.161419
	29.040000	0.229109
	29.045000	0.161419
	29.050000	0.100175
	29.055000	0.161419
	29.060000	0.232333
	29.065000	0.164642
	29.070000	0.103398
	29.075000	0.161419
	29.080000	0.235556
	29.085000	0.167865
	29.090000	0.096952
	29.095000	0.167865
	29.100000	0.232333
	29.105000	0.167865
	29.110000	0.106622
	29.115000	0.164642
	29.120000	0.232333
	29.125000	0.167865
	29.130000	0.103398
	29.135000	0.164642
	29.140000	0.232333
	29.145000	0.164642
	29.150000	0.100175
	29.155000	0.171089
	29.160000	0.235556
	29.165000	0.174312
	29.170000	0.100175
	29.175000	0.164642
	29.180000	0.225886
	29.185000	0.164642
	29.190000	0.100175
	29.195000	0.164642
	29.200000	0.229109
	29.205000	0.180759
	29.210000	0.103398
	29.215000	0.164642
	29.220000	0.238779
	29.225000	0.174312
	29.230000	0.103398
	29.235000	0.164642
	29.240000	0.238779
	29.245000	0.174312
	29.250000	0.109845
	29.255000	0.164642
	29.260000	0.232333
	29.265000	0.177536
	29.270000	0.103398
	29.275000	0.167865
	29.280000	0.232333
	29.285000	0.174312
	29.290000	0.103398
	29.295000	0.174312
	29.300000	0.238779
	29.305000	0.177536
	29.310000	0.100175
	29.315000	0.167865
	29.320000	0.238779
	29.325000	0.177536
	29.330000	0.106622
	29.335000	0.167865
	29.340000	0.235556
	29.345000	0.177536
	29.350000	0.103398
	29.355000	0.164642
	29.360000	0.235556
	29.365000	0.177536
	29.370000	0.106622
	29.375000	0.167865
	29.380000	0.238779
	29.385000	0.180759
	29.390000	0.109845
	29.395000	0.164642
	29.400000	0.235556
	29.405000	0.183982
	29.410000	0.109845
	29.415000	0.167865
	29.420000	0.238779
	29.425000	0.183982
	29.430000	0.103398
	29.435000	0.164642
	29.440000	0.245226
	29.445000	0.177536
	29.450000	0.103398
	29.455000	0.164642
	29.460000	0.238779
	29.465000	0.187206
	29.470000	0.103398
	29.475000	0.167865
	29.480000	0.238779
	29.485000	0.177536
	29.490000	0.109845
	29.495000	0.167865
	29.500000	0.235556
	29.505000	0.180759
	29.510000	0.106622
	29.515000	0.167865
	29.520000	0.235556
	29.525000	0.180759
	29.530000	0.109845
	29.535000	0.164642
	29.540000	0.232333
	29.545000	0.183982
	29.550000	0.109845
	29.555000	0.167865
	29.560000	0.238779
	29.565000	0.180759
	29.570000	0.106622
	29.575000	0.164642
	29.580000	0.238779
	29.585000	0.183982
	29.590000	0.106622
	29.595000	0.164642
	29.600000	0.238779
	29.605000	0.180759
	29.610000	0.113068
	29.615000	0.167865
	29.620000	0.238779
	29.625000	0.177536
	29.630000	0.109845
	29.635000	0.167865
	29.640000	0.238779
	29.645000	0.187206
	29.650000	0.113068
	29.655000	0.171089
	29.660000	0.235556
	29.665000	0.183982
	29.670000	0.113068
	29.675000	0.158195
	29.680000	0.238779
	29.685000	0.187206
	29.690000	0.106622
	29.695000	0.164642
	29.700000	0.235556
	29.705000	0.187206
	29.710000	0.106622
	29.715000	0.158195
	29.720000	0.238779
	29.725000	0.187206
	29.730000	0.113068
	29.735000	0.161419
	29.740000	0.238779
	29.745000	0.187206
	29.750000	0.109845
	29.755000	0.164642
	29.760000	0.242003
	29.765000	0.190429
	29.770000	0.106622
	29.775000	0.164642
	29.780000	0.235556
	29.785000	0.183982
	29.790000	0.113068
	29.795000	0.158195
	29.800000	0.235556
	29.805000	0.180759
	29.810000	0.113068
	29.815000	0.158195
	29.820000	0.242003
	29.825000	0.190429
	29.830000	0.109845
	29.835000	0.167865
	29.840000	0.235556
	29.845000	0.187206
	29.850000	0.106622
	29.855000	0.158195
	29.860000	0.229109
	29.865000	0.180759
	29.870000	0.103398
	29.875000	0.164642
	29.880000	0.242003
	29.885000	0.183982
	29.890000	0.113068
	29.895000	0.158195
	29.900000	0.238779
	29.905000	0.187206
	29.910000	0.109845
	29.915000	0.158195
	29.920000	0.235556
	29.925000	0.183982
	29.930000	0.109845
	29.935000	0.158195
	29.940000	0.235556
	29.945000	0.183982
	29.950000	0.106622
	29.955000	0.161419
	29.960000	0.238779
	29.965000	0.180759
	29.970000	0.106622
	29.975000	0.167865
	29.980000	0.235556
	29.985000	0.190429
	29.990000	0.106622
	29.995000	0.158195
	30.000000	0.235556
	30.005000	0.187206
	30.010000	0.106622
	30.015000	0.161419
	30.020000	0.245226
	30.025000	0.187206
	30.030000	0.106622
	30.035000	0.158195
	30.040000	0.235556
	30.045000	0.187206
	30.050000	0.113068
	30.055000	0.161419
	30.060000	0.238779
	30.065000	0.190429
	30.070000	0.113068
	30.075000	0.161419
	30.080000	0.232333
	30.085000	0.193652
	30.090000	0.113068
	30.095000	0.154972
	30.100000	0.232333
	30.105000	0.193652
	30.110000	0.109845
	30.115000	0.161419
	30.120000	0.235556
	30.125000	0.193652
	30.130000	0.106622
	30.135000	0.158195
	30.140000	0.235556
	30.145000	0.193652
	30.150000	0.113068
	30.155000	0.158195
	30.160000	0.229109
	30.165000	0.193652
	30.170000	0.109845
	30.175000	0.161419
	30.180000	0.235556
	30.185000	0.190429
	30.190000	0.113068
	30.195000	0.161419
	30.200000	0.235556
	30.205000	0.190429
	30.210000	0.106622
	30.215000	0.154972
	30.220000	0.238779
	30.225000	0.193652
	30.230000	0.113068
	30.235000	0.154972
	30.240000	0.229109
	30.245000	0.190429
	30.250000	0.106622
	30.255000	0.158195
	30.260000	0.235556
	30.265000	0.187206
	30.270000	0.109845
	30.275000	0.154972
	30.280000	0.238779
	30.285000	0.196876
	30.290000	0.116292
	30.295000	0.151749
	30.300000	0.242003
	30.305000	0.190429
	30.310000	0.106622
	30.315000	0.154972
	30.320000	0.235556
	30.325000	0.187206
	30.330000	0.109845
	30.335000	0.151749
	30.340000	0.235556
	30.345000	0.193652
	30.350000	0.113068
	30.355000	0.154972
	30.360000	0.235556
	30.365000	0.193652
	30.370000	0.106622
	30.375000	0.158195
	30.380000	0.235556
	30.385000	0.187206
	30.390000	0.109845
	30.395000	0.151749
	30.400000	0.232333
	30.405000	0.193652
	30.410000	0.113068
	30.415000	0.154972
	30.420000	0.232333
	30.425000	0.193652
	30.430000	0.106622
	30.435000	0.154972
	30.440000	0.235556
	30.445000	0.187206
	30.450000	0.106622
	30.455000	0.154972
	30.460000	0.232333
	30.465000	0.196876
	30.470000	0.116292
	30.475000	0.154972
	30.480000	0.229109
	30.485000	0.193652
	30.490000	0.106622
	30.495000	0.158195
	30.500000	0.232333
	30.505000	0.193652
	30.510000	0.109845
	30.515000	0.154972
	30.520000	0.235556
	30.525000	0.190429
	30.530000	0.106622
	30.535000	0.154972
	30.540000	0.238779
	30.545000	0.206546
	30.550000	0.109845
	30.555000	0.161419
	30.560000	0.232333
	30.565000	0.196876
	30.570000	0.116292
	30.575000	0.148525
	30.580000	0.238779
	30.585000	0.193652
	30.590000	0.116292
	30.595000	0.158195
	30.600000	0.232333
	30.605000	0.190429
	30.610000	0.116292
	30.615000	0.158195
	30.620000	0.235556
	30.625000	0.196876
	30.630000	0.109845
	30.635000	0.151749
	30.640000	0.238779
	30.645000	0.203322
	30.650000	0.109845
	30.655000	0.154972
	30.660000	0.242003
	30.665000	0.200099
	30.670000	0.119515
	30.675000	0.161419
	30.680000	0.251673
	30.685000	0.212992
	30.690000	0.135632
	30.695000	0.171089
	30.700000	0.258119
	30.705000	0.232333
	30.710000	0.148525
	30.715000	0.187206
	30.720000	0.271013
	30.725000	0.235556
	30.730000	0.161419
	30.735000	0.200099
	30.740000	0.283906
	30.745000	0.251673
	30.750000	0.174312
	30.755000	0.216216
	30.760000	0.300023
	30.765000	0.267790
	30.770000	0.193652
	30.775000	0.225886
	30.780000	0.312917
	30.785000	0.274236
	30.790000	0.196876
	30.795000	0.238779
	30.800000	0.322587
	30.805000	0.287130
	30.810000	0.212992
	30.815000	0.254896
	30.820000	0.325810
	30.825000	0.300023
	30.830000	0.209769
	30.835000	0.245226
	30.840000	0.329033
	30.845000	0.296800
	30.850000	0.209769
	30.855000	0.248449
	30.860000	0.332257
	30.865000	0.293576
	30.870000	0.212992
	30.875000	0.245226
	30.880000	0.322587
	30.885000	0.293576
	30.890000	0.206546
	30.895000	0.242003
	30.900000	0.319363
	30.905000	0.283906
	30.910000	0.206546
	30.915000	0.238779
	30.920000	0.316140
	30.925000	0.280683
	30.930000	0.209769
	30.935000	0.235556
	30.940000	0.316140
	30.945000	0.287130
	30.950000	0.200099
	30.955000	0.235556
	30.960000	0.312917
	30.965000	0.277460
	30.970000	0.193652
	30.975000	0.229109
	30.980000	0.309693
	30.985000	0.271013
	30.990000	0.193652
	30.995000	0.232333
	31.000000	0.303247
	31.005000	0.271013
	31.010000	0.196876
	31.015000	0.225886
	31.020000	0.309693
	31.025000	0.271013
	31.030000	0.193652
	31.035000	0.216216
	31.040000	0.303247
	31.045000	0.274236
	31.050000	0.190429
	31.055000	0.222663
	31.060000	0.296800
	31.065000	0.271013
	31.070000	0.180759
	31.075000	0.219439
	31.080000	0.296800
	31.085000	0.264566
	31.090000	0.183982
	31.095000	0.212992
	31.100000	0.290353
	31.105000	0.261343
	31.110000	0.171089
	31.115000	0.206546
	31.120000	0.280683
	31.125000	0.251673
	31.130000	0.164642
	31.135000	0.193652
	31.140000	0.267790
	31.145000	0.235556
	31.150000	0.154972
	31.155000	0.187206
	31.160000	0.267790
	31.165000	0.232333
	31.170000	0.151749
	31.175000	0.180759
	31.180000	0.258119
	31.185000	0.219439
	31.190000	0.145302
	31.195000	0.171089
	31.200000	0.254896
	31.205000	0.216216
	31.210000	0.138855
	31.215000	0.161419
	31.220000	0.242003
	31.225000	0.212992
	31.230000	0.129185
	31.235000	0.154972
	31.240000	0.238779
	31.245000	0.203322
	31.250000	0.122738
	31.255000	0.151749
	31.260000	0.229109
	31.265000	0.200099
	31.270000	0.116292
	31.275000	0.138855
	31.280000	0.225886
	31.285000	0.193652
	31.290000	0.113068
	31.295000	0.142079
	31.300000	0.222663
	31.305000	0.196876
	31.310000	0.109845
	31.315000	0.135632
	31.320000	0.222663
	31.325000	0.196876
	31.330000	0.113068
	31.335000	0.135632
	31.340000	0.219439
	31.345000	0.196876
	31.350000	0.109845
	31.355000	0.142079
	31.360000	0.225886
	31.365000	0.196876
	31.370000	0.106622
	31.375000	0.135632
	31.380000	0.222663
	31.385000	0.203322
	31.390000	0.106622
	31.395000	0.138855
	31.400000	0.219439
	31.405000	0.196876
	31.410000	0.109845
	31.415000	0.142079
	31.420000	0.222663
	31.425000	0.203322
	31.430000	0.106622
	31.435000	0.145302
	31.440000	0.219439
	31.445000	0.200099
	31.450000	0.113068
	31.455000	0.138855
	31.460000	0.225886
	31.465000	0.200099
	31.470000	0.116292
	31.475000	0.138855
	31.480000	0.229109
	31.485000	0.193652
	31.490000	0.113068
	31.495000	0.138855
	31.500000	0.219439
	31.505000	0.196876
	31.510000	0.109845
	31.515000	0.129185
	31.520000	0.216216
	31.525000	0.196876
	31.530000	0.106622
	31.535000	0.138855
	31.540000	0.219439
	31.545000	0.196876
	31.550000	0.113068
	31.555000	0.135632
	31.560000	0.216216
	31.565000	0.196876
	31.570000	0.106622
	31.575000	0.132408
	31.580000	0.222663
	31.585000	0.196876
	31.590000	0.109845
	31.595000	0.135632
	31.600000	0.219439
	31.605000	0.200099
	31.610000	0.109845
	31.615000	0.138855
	31.620000	0.225886
	31.625000	0.196876
	31.630000	0.109845
	31.635000	0.138855
	31.640000	0.219439
	31.645000	0.193652
	31.650000	0.113068
	31.655000	0.129185
	31.660000	0.219439
	31.665000	0.200099
	31.670000	0.106622
	31.675000	0.135632
	31.680000	0.219439
	31.685000	0.200099
	31.690000	0.113068
	31.695000	0.135632
	31.700000	0.222663
	31.705000	0.203322
	31.710000	0.113068
	31.715000	0.132408
	31.720000	0.222663
	31.725000	0.206546
	31.730000	0.109845
	31.735000	0.129185
	31.740000	0.222663
	31.745000	0.203322
	31.750000	0.113068
	31.755000	0.132408
	31.760000	0.222663
	31.765000	0.196876
	31.770000	0.113068
	31.775000	0.135632
	31.780000	0.219439
	31.785000	0.200099
	31.790000	0.106622
	31.795000	0.129185
	31.800000	0.225886
	31.805000	0.206546
	31.810000	0.109845
	31.815000	0.132408
	31.820000	0.222663
	31.825000	0.203322
	31.830000	0.109845
	31.835000	0.132408
	31.840000	0.219439
	31.845000	0.200099
	31.850000	0.103398
	31.855000	0.135632
	31.860000	0.219439
	31.865000	0.206546
	31.870000	0.113068
	31.875000	0.138855
	31.880000	0.225886
	31.885000	0.206546
	31.890000	0.109845
	31.895000	0.135632
	31.900000	0.225886
	31.905000	0.203322
	31.910000	0.116292
	31.915000	0.135632
	31.920000	0.225886
	31.925000	0.206546
	31.930000	0.119515
	31.935000	0.138855
	31.940000	0.225886
	31.945000	0.200099
	31.950000	0.116292
	31.955000	0.142079
	31.960000	0.229109
	31.965000	0.206546
	31.970000	0.119515
	31.975000	0.135632
	31.980000	0.222663
	31.985000	0.206546
	31.990000	0.116292
	31.995000	0.138855
	32.000000	0.225886
	32.005000	0.206546
	32.010000	0.119515
	32.015000	0.138855
	32.020000	0.222663
	32.025000	0.203322
	32.030000	0.119515
	32.035000	0.129185
	32.040000	0.225886
	32.045000	0.203322
	32.050000	0.119515
	32.055000	0.135632
	32.060000	0.229109
	32.065000	0.206546
	32.070000	0.116292
	32.075000	0.138855
	32.080000	0.229109
	32.085000	0.206546
	32.090000	0.119515
	32.095000	0.132408
	32.100000	0.225886
	32.105000	0.209769
	32.110000	0.122738
	32.115000	0.129185
	32.120000	0.225886
	32.125000	0.212992
	32.130000	0.119515
	32.135000	0.142079
	32.140000	0.229109
	32.145000	0.216216
	32.150000	0.122738
	32.155000	0.135632
	32.160000	0.225886
	32.165000	0.216216
	32.170000	0.119515
	32.175000	0.142079
	32.180000	0.229109
	32.185000	0.206546
	32.190000	0.125962
	32.195000	0.132408
	32.200000	0.229109
	32.205000	0.209769
	32.210000	0.122738
	32.215000	0.138855
	32.220000	0.222663
	32.225000	0.206546
	32.230000	0.122738
	32.235000	0.138855
	32.240000	0.225886
	32.245000	0.209769
	32.250000	0.119515
	32.255000	0.138855
	32.260000	0.225886
	32.265000	0.209769
	32.270000	0.129185
	32.275000	0.135632
	32.280000	0.229109
	32.285000	0.212992
	32.290000	0.129185
	32.295000	0.135632
	32.300000	0.225886
	32.305000	0.216216
	32.310000	0.122738
	32.315000	0.135632
	32.320000	0.229109
	32.325000	0.219439
	32.330000	0.119515
	32.335000	0.135632
	32.340000	0.225886
	32.345000	0.209769
	32.350000	0.119515
	32.355000	0.132408
	32.360000	0.225886
	32.365000	0.209769
	32.370000	0.122738
	32.375000	0.138855
	32.380000	0.225886
	32.385000	0.216216
	32.390000	0.122738
	32.395000	0.142079
	32.400000	0.225886
	32.405000	0.219439
	32.410000	0.122738
	32.415000	0.138855
	32.420000	0.229109
	32.425000	0.219439
	32.430000	0.122738
	32.435000	0.135632
	32.440000	0.229109
	32.445000	0.219439
	32.450000	0.122738
	32.455000	0.135632
	32.460000	0.229109
	32.465000	0.222663
	32.470000	0.122738
	32.475000	0.135632
	32.480000	0.225886
	32.485000	0.216216
	32.490000	0.125962
	32.495000	0.135632
	32.500000	0.232333
	32.505000	0.219439
	32.510000	0.125962
	32.515000	0.138855
	32.520000	0.225886
	32.525000	0.212992
	32.530000	0.122738
	32.535000	0.135632
	32.540000	0.225886
	32.545000	0.219439
	32.550000	0.125962
	32.555000	0.138855
	32.560000	0.222663
	32.565000	0.219439
	32.570000	0.125962
	32.575000	0.138855
	32.580000	0.229109
	32.585000	0.225886
	32.590000	0.122738
	32.595000	0.135632
	32.600000	0.229109
	32.605000	0.222663
	32.610000	0.129185
	32.615000	0.138855
	32.620000	0.225886
	32.625000	0.212992
	32.630000	0.125962
	32.635000	0.138855
	32.640000	0.225886
	32.645000	0.222663
	32.650000	0.129185
	32.655000	0.138855
	32.660000	0.229109
	32.665000	0.222663
	32.670000	0.132408
	32.675000	0.125962
	32.680000	0.225886
	32.685000	0.216216
	32.690000	0.122738
	32.695000	0.132408
	32.700000	0.229109
	32.705000	0.225886
	32.710000	0.129185
	32.715000	0.132408
	32.720000	0.225886
	32.725000	0.219439
	32.730000	0.132408
	32.735000	0.138855
	32.740000	0.232333
	32.745000	0.225886
	32.750000	0.129185
	32.755000	0.135632
	32.760000	0.222663
	32.765000	0.222663
	32.770000	0.129185
	32.775000	0.135632
	32.780000	0.229109
	32.785000	0.225886
	32.790000	0.125962
	32.795000	0.138855
	32.800000	0.225886
	32.805000	0.225886
	32.810000	0.132408
	32.815000	0.135632
	32.820000	0.229109
	32.825000	0.222663
	32.830000	0.129185
	32.835000	0.135632
	32.840000	0.229109
	32.845000	0.225886
	32.850000	0.129185
	32.855000	0.135632
	32.860000	0.225886
	32.865000	0.222663
	32.870000	0.135632
	32.875000	0.142079
	32.880000	0.232333
	32.885000	0.225886
	32.890000	0.132408
	32.895000	0.138855
	32.900000	0.225886
	32.905000	0.222663
	32.910000	0.132408
	32.915000	0.135632
	32.920000	0.225886
	32.925000	0.222663
	32.930000	0.132408
	32.935000	0.135632
	32.940000	0.222663
	32.945000	0.229109
	32.950000	0.135632
	32.955000	0.142079
	32.960000	0.225886
	32.965000	0.229109
	32.970000	0.135632
	32.975000	0.132408
	32.980000	0.225886
	32.985000	0.229109
	32.990000	0.132408
	32.995000	0.132408
	33.000000	0.225886
	33.005000	0.219439
	33.010000	0.132408
	33.015000	0.142079
	33.020000	0.225886
	33.025000	0.229109
	33.030000	0.135632
	33.035000	0.142079
	33.040000	0.225886
	33.045000	0.225886
	33.050000	0.132408
	33.055000	0.138855
	33.060000	0.225886
	33.065000	0.229109
	33.070000	0.135632
	33.075000	0.132408
	33.080000	0.229109
	33.085000	0.225886
	33.090000	0.132408
	33.095000	0.135632
	33.100000	0.222663
	33.105000	0.216216
	33.110000	0.132408
	33.115000	0.129185
	33.120000	0.219439
	33.125000	0.222663
	33.130000	0.132408
	33.135000	0.132408
	33.140000	0.229109
	33.145000	0.225886
	33.150000	0.135632
	33.155000	0.135632
	33.160000	0.222663
	33.165000	0.222663
	33.170000	0.135632
	33.175000	0.132408
	33.180000	0.219439
	33.185000	0.225886
	33.190000	0.132408
	33.195000	0.125962
	33.200000	0.219439
	33.205000	0.222663
	33.210000	0.129185
	33.215000	0.129185
	33.220000	0.229109
	33.225000	0.222663
	33.230000	0.132408
	33.235000	0.135632
	33.240000	0.216216
	33.245000	0.232333
	33.250000	0.129185
	33.255000	0.122738
	33.260000	0.219439
	33.265000	0.225886
	33.270000	0.132408
	33.275000	0.129185
	33.280000	0.225886
	33.285000	0.222663
	33.290000	0.129185
	33.295000	0.129185
	33.300000	0.222663
	33.305000	0.229109
	33.310000	0.132408
	33.315000	0.129185
	33.320000	0.219439
	33.325000	0.232333
	33.330000	0.129185
	33.335000	0.125962
	33.340000	0.219439
	33.345000	0.229109
	33.350000	0.135632
	33.355000	0.125962
	33.360000	0.222663
	33.365000	0.225886
	33.370000	0.135632
	33.375000	0.125962
	33.380000	0.222663
	33.385000	0.229109
	33.390000	0.129185
	33.395000	0.132408
	33.400000	0.219439
	33.405000	0.222663
	33.410000	0.135632
	33.415000	0.122738
	33.420000	0.216216
	33.425000	0.232333
	33.430000	0.129185
	33.435000	0.125962
	33.440000	0.219439
	33.445000	0.219439
	33.450000	0.129185
	33.455000	0.122738
	33.460000	0.219439
	33.465000	0.229109
	33.470000	0.132408
	33.475000	0.129185
	33.480000	0.219439
	33.485000	0.229109
	33.490000	0.135632
	33.495000	0.138855
	33.500000	0.219439
	33.505000	0.222663
	33.510000	0.125962
	33.515000	0.125962
	33.520000	0.212992
	33.525000	0.225886
	33.530000	0.135632
	33.535000	0.129185
	33.540000	0.219439
	33.545000	0.225886
	33.550000	0.135632
	33.555000	0.129185
	33.560000	0.219439
	33.565000	0.225886
	33.570000	0.129185
	33.575000	0.125962
	33.580000	0.216216
	33.585000	0.222663
	33.590000	0.129185
	33.595000	0.122738
	33.600000	0.216216
	33.605000	0.225886
	33.610000	0.132408
	33.615000	0.122738
	33.620000	0.216216
	33.625000	0.225886
	33.630000	0.138855
	33.635000	0.122738
	33.640000	0.219439
	33.645000	0.225886
	33.650000	0.125962
	33.655000	0.125962
	33.660000	0.206546
	33.665000	0.232333
	33.670000	0.129185
	33.675000	0.122738
	33.680000	0.216216
	33.685000	0.222663
	33.690000	0.138855
	33.695000	0.129185
	33.700000	0.216216
	33.705000	0.225886
	33.710000	0.135632
	33.715000	0.119515
	33.720000	0.212992
	33.725000	0.222663
	33.730000	0.138855
	33.735000	0.122738
	33.740000	0.212992
	33.745000	0.229109
	33.750000	0.132408
	33.755000	0.129185
	33.760000	0.219439
	33.765000	0.222663
	33.770000	0.135632
	33.775000	0.129185
	33.780000	0.212992
	33.785000	0.229109
	33.790000	0.138855
	33.795000	0.122738
	33.800000	0.212992
	33.805000	0.229109
	33.810000	0.132408
	33.815000	0.122738
	33.820000	0.219439
	33.825000	0.225886
	33.830000	0.132408
	33.835000	0.122738
	33.840000	0.216216
	33.845000	0.229109
	33.850000	0.138855
	33.855000	0.116292
	33.860000	0.209769
	33.865000	0.229109
	33.870000	0.138855
	33.875000	0.125962
	33.880000	0.216216
	33.885000	0.225886
	33.890000	0.138855
	33.895000	0.122738
	33.900000	0.212992
	33.905000	0.232333
	33.910000	0.145302
	33.915000	0.122738
	33.920000	0.212992
	33.925000	0.235556
	33.930000	0.145302
	33.935000	0.129185
	33.940000	0.225886
	33.945000	0.242003
	33.950000	0.154972
	33.955000	0.142079
	33.960000	0.229109
	33.965000	0.248449
	33.970000	0.154972
	33.975000	0.154972
	33.980000	0.238779
	33.985000	0.258119
	33.990000	0.174312
	33.995000	0.164642
	34.000000	0.258119
	34.005000	0.267790
	34.010000	0.183982
	34.015000	0.177536
	34.020000	0.261343
	34.025000	0.280683
	34.030000	0.200099
	34.035000	0.187206
	34.040000	0.280683
	34.045000	0.303247
	34.050000	0.219439
	34.055000	0.203322
	34.060000	0.293576
	34.065000	0.312917
	34.070000	0.235556
	34.075000	0.216216
	34.080000	0.312917
	34.085000	0.332257
	34.090000	0.238779
	34.095000	0.229109
	34.100000	0.316140
	34.105000	0.329033
	34.110000	0.248449
	34.115000	0.225886
	34.120000	0.312917
	34.125000	0.335480
	34.130000	0.245226
	34.135000	0.229109
	34.140000	0.316140
	34.145000	0.335480
	34.150000	0.245226
	34.155000	0.229109
	34.160000	0.309693
	34.165000	0.329033
	34.170000	0.245226
	34.175000	0.229109
	34.180000	0.309693
	34.185000	0.332257
	34.190000	0.245226
	34.195000	0.229109
	34.200000	0.309693
	34.205000	0.332257
	34.210000	0.245226
	34.215000	0.222663
	34.220000	0.306470
	34.225000	0.332257
	34.230000	0.242003
	34.235000	0.225886
	34.240000	0.306470
	34.245000	0.329033
	34.250000	0.238779
	34.255000	0.219439
	34.260000	0.300023
	34.265000	0.319363
	34.270000	0.238779
	34.275000	0.216216
	34.280000	0.303247
	34.285000	0.312917
	34.290000	0.238779
	34.295000	0.212992
	34.300000	0.296800
	34.305000	0.312917
	34.310000	0.232333
	34.315000	0.209769
	34.320000	0.290353
	34.325000	0.312917
	34.330000	0.229109
	34.335000	0.203322
	34.340000	0.277460
	34.345000	0.296800
	34.350000	0.216216
	34.355000	0.190429
	34.360000	0.267790
	34.365000	0.296800
	34.370000	0.206546
	34.375000	0.177536
	34.380000	0.264566
	34.385000	0.277460
	34.390000	0.190429
	34.395000	0.158195
	34.400000	0.238779
	34.405000	0.261343
	34.410000	0.167865
	34.415000	0.148525
	34.420000	0.225886
	34.425000	0.251673
	34.430000	0.164642
	34.435000	0.132408
	34.440000	0.216216
	34.445000	0.242003
	34.450000	0.151749
	34.455000	0.129185
	34.460000	0.209769
	34.465000	0.225886
	34.470000	0.142079
	34.475000	0.119515
	34.480000	0.200099
	34.485000	0.222663
	34.490000	0.138855
	34.495000	0.116292
	34.500000	0.193652
	34.505000	0.219439
	34.510000	0.132408
	34.515000	0.103398
	34.520000	0.193652
	34.525000	0.212992
	34.530000	0.125962
	34.535000	0.096952
	34.540000	0.187206
	34.545000	0.212992
	34.550000	0.122738
	34.555000	0.100175
	34.560000	0.190429
	34.565000	0.212992
	34.570000	0.129185
	34.575000	0.100175
	34.580000	0.187206
	34.585000	0.216216
	34.590000	0.129185
	34.595000	0.103398
	34.600000	0.200099
	34.605000	0.222663
	34.610000	0.132408
	34.615000	0.109845
	34.620000	0.190429
	34.625000	0.219439
	34.630000	0.129185
	34.635000	0.109845
	34.640000	0.196876
	34.645000	0.225886
	34.650000	0.138855
	34.655000	0.113068
	34.660000	0.196876
	34.665000	0.229109
	34.670000	0.145302
	34.675000	0.113068
	34.680000	0.196876
	34.685000	0.229109
	34.690000	0.142079
	34.695000	0.119515
	34.700000	0.200099
	34.705000	0.225886
	34.710000	0.142079
	34.715000	0.113068
	34.720000	0.196876
	34.725000	0.219439
	34.730000	0.145302
	34.735000	0.116292
	34.740000	0.196876
	34.745000	0.229109
	34.750000	0.132408
	34.755000	0.106622
	34.760000	0.196876
	34.765000	0.222663
	34.770000	0.138855
	34.775000	0.106622
	34.780000	0.193652
	34.785000	0.225886
	34.790000	0.138855
	34.795000	0.109845
	34.800000	0.193652
	34.805000	0.222663
	34.810000	0.135632
	34.815000	0.103398
	34.820000	0.187206
	34.825000	0.222663
	34.830000	0.135632
	34.835000	0.106622
	34.840000	0.183982
	34.845000	0.219439
	34.850000	0.132408
	34.855000	0.096952
	34.860000	0.187206
	34.865000	0.219439
	34.870000	0.135632
	34.875000	0.100175
	34.880000	0.187206
	34.885000	0.216216
	34.890000	0.135632
	34.895000	0.103398
	34.900000	0.193652
	34.905000	0.216216
	34.910000	0.135632
	34.915000	0.100175
	34.920000	0.190429
	34.925000	0.222663
	34.930000	0.138855
	34.935000	0.103398
	34.940000	0.193652
	34.945000	0.222663
	34.950000	0.135632
	34.955000	0.096952
	34.960000	0.196876
	34.965000	0.222663
	34.970000	0.135632
	34.975000	0.106622
	34.980000	0.190429
	34.985000	0.222663
	34.990000	0.142079
	34.995000	0.096952
	35.000000	0.187206
	35.005000	0.222663
	35.010000	0.135632
	35.015000	0.103398
	35.020000	0.190429
	35.025000	0.219439
	35.030000	0.142079
	35.035000	0.106622
	35.040000	0.190429
	35.045000	0.219439
	35.050000	0.138855
	35.055000	0.096952
	35.060000	0.180759
	35.065000	0.222663
	35.070000	0.142079
	35.075000	0.103398
	35.080000	0.187206
	35.085000	0.225886
	35.090000	0.138855
	35.095000	0.100175
	35.100000	0.190429
	35.105000	0.229109
	35.110000	0.138855
	35.115000	0.106622
	35.120000	0.193652
	35.125000	0.232333
	35.130000	0.148525
	35.135000	0.106622
	35.140000	0.193652
	35.145000	0.222663
	35.150000	0.145302
	35.155000	0.109845
	35.160000	0.196876
	35.165000	0.225886
	35.170000	0.145302
	35.175000	0.103398
	35.180000	0.190429
	35.185000	0.222663
	35.190000	0.145302
	35.195000	0.106622
	35.200000	0.187206
	35.205000	0.229109
	35.210000	0.142079
	35.215000	0.113068
	35.220000	0.193652
	35.225000	0.232333
	35.230000	0.142079
	35.235000	0.103398
	35.240000	0.193652
	35.245000	0.235556
	35.250000	0.142079
	35.255000	0.106622
	35.260000	0.193652
	35.265000	0.225886
	35.270000	0.148525
	35.275000	0.109845
	35.280000	0.187206
	35.285000	0.225886
	35.290000	0.142079
	35.295000	0.109845
	35.300000	0.190429
	35.305000	0.222663
	35.310000	0.151749
	35.315000	0.109845
	35.320000	0.190429
	35.325000	0.232333
	35.330000	0.148525
	35.335000	0.103398
	35.340000	0.190429
	35.345000	0.225886
	35.350000	0.151749
	35.355000	0.103398
	35.360000	0.190429
	35.365000	0.222663
	35.370000	0.142079
	35.375000	0.106622
	35.380000	0.183982
	35.385000	0.232333
	35.390000	0.148525
	35.395000	0.109845
	35.400000	0.196876
	35.405000	0.225886
	35.410000	0.151749
	35.415000	0.103398
	35.420000	0.193652
	35.425000	0.235556
	35.430000	0.151749
	35.435000	0.106622
	35.440000	0.187206
	35.445000	0.232333
	35.450000	0.145302
	35.455000	0.109845
	35.460000	0.190429
	35.465000	0.229109
	35.470000	0.148525
	35.475000	0.109845
	35.480000	0.193652
	35.485000	0.235556
	35.490000	0.158195
	35.495000	0.109845
	35.500000	0.193652
	35.505000	0.229109
	35.510000	0.148525
	35.515000	0.109845
	35.520000	0.187206
	35.525000	0.232333
	35.530000	0.154972
	35.535000	0.113068
	35.540000	0.193652
	35.545000	0.232333
	35.550000	0.158195
	35.555000	0.109845
	35.560000	0.190429
	35.565000	0.235556
	35.570000	0.151749
	35.575000	0.113068
	35.580000	0.190429
	35.585000	0.238779
	35.590000	0.154972
	35.595000	0.109845
	35.600000	0.190429
	35.605000	0.238779
	35.610000	0.154972
	35.615000	0.109845
	35.620000	0.187206
	35.625000	0.238779
	35.630000	0.154972
	35.635000	0.116292
	35.640000	0.190429
	35.645000	0.238779
	35.650000	0.154972
	35.655000	0.116292
	35.660000	0.190429
	35.665000	0.235556
	35.670000	0.154972
	35.675000	0.116292
	35.680000	0.193652
	35.685000	0.238779
	35.690000	0.154972
	35.695000	0.113068
	35.700000	0.190429
	35.705000	0.242003
	35.710000	0.154972
	35.715000	0.109845
	35.720000	0.187206
	35.725000	0.238779
	35.730000	0.154972
	35.735000	0.116292
	35.740000	0.193652
	35.745000	0.232333
	35.750000	0.158195
	35.755000	0.106622
	35.760000	0.190429
	35.765000	0.232333
	35.770000	0.158195
	35.775000	0.113068
	35.780000	0.190429
	35.785000	0.238779
	35.790000	0.151749
	35.795000	0.113068
	35.800000	0.187206
	35.805000	0.232333
	35.810000	0.154972
	35.815000	0.113068
	35.820000	0.190429
	35.825000	0.238779
	35.830000	0.154972
	35.835000	0.109845
	35.840000	0.190429
	35.845000	0.235556
	35.850000	0.154972
	35.855000	0.113068
	35.860000	0.187206
	35.865000	0.238779
	35.870000	0.154972
	35.875000	0.109845
	35.880000	0.187206
	35.885000	0.235556
	35.890000	0.158195
	35.895000	0.109845
	35.900000	0.193652
	35.905000	0.242003
	35.910000	0.161419
	35.915000	0.109845
	35.920000	0.196876
	35.925000	0.245226
	35.930000	0.161419
	35.935000	0.116292
	35.940000	0.196876
	35.945000	0.235556
	35.950000	0.161419
	35.955000	0.113068
	35.960000	0.193652
	35.965000	0.238779
	35.970000	0.161419
	35.975000	0.116292
	35.980000	0.193652
	35.985000	0.235556
	35.990000	0.161419
	35.995000	0.109845
	36.000000	0.187206
	36.005000	0.232333
	36.010000	0.158195
	36.015000	0.113068
	36.020000	0.190429
	36.025000	0.238779
	36.030000	0.161419
	36.035000	0.113068
	36.040000	0.193652
	36.045000	0.238779
	36.050000	0.158195
	36.055000	0.106622
	36.060000	0.187206
	36.065000	0.242003
	36.070000	0.164642
	36.075000	0.113068
	36.080000	0.193652
	36.085000	0.238779
	36.090000	0.161419
	36.095000	0.116292
	36.100000	0.187206
	36.105000	0.238779
	36.110000	0.158195
	36.115000	0.109845
	36.120000	0.187206
	36.125000	0.235556
	36.130000	0.164642
	36.135000	0.109845
	36.140000	0.187206
	36.145000	0.242003
	36.150000	0.161419
	36.155000	0.109845
	36.160000	0.183982
	36.165000	0.242003
	36.170000	0.164642
	36.175000	0.109845
	36.180000	0.190429
	36.185000	0.242003
	36.190000	0.161419
	36.195000	0.113068
	36.200000	0.190429
	36.205000	0.238779
	36.210000	0.164642
	36.215000	0.106622
	36.220000	0.190429
	36.225000	0.245226
	36.230000	0.164642
	36.235000	0.113068
	36.240000	0.183982
	36.245000	0.238779
	36.250000	0.164642
	36.255000	0.113068
	36.260000	0.183982
	36.265000	0.238779
	36.270000	0.164642
	36.275000	0.109845
	36.280000	0.187206
	36.285000	0.242003
	36.290000	0.161419
	36.295000	0.109845
	36.300000	0.187206
	36.305000	0.248449
	36.310000	0.167865
	36.315000	0.109845
	36.320000	0.190429
	36.325000	0.238779
	36.330000	0.174312
	36.335000	0.116292
	36.340000	0.190429
	36.345000	0.245226
	36.350000	0.164642
	36.355000	0.106622
	36.360000	0.190429
	36.365000	0.242003
	36.370000	0.164642
	36.375000	0.113068
	36.380000	0.193652
	36.385000	0.245226
	36.390000	0.164642
	36.395000	0.116292
	36.400000	0.183982
	36.405000	0.238779
	36.410000	0.154972
	36.415000	0.119515
	36.420000	0.193652
	36.425000	0.245226
	36.430000	0.167865
	36.435000	0.113068
	36.440000	0.180759
	36.445000	0.245226
	36.450000	0.167865
	36.455000	0.113068
	36.460000	0.190429
	36.465000	0.235556
	36.470000	0.164642
	36.475000	0.113068
	36.480000	0.183982
	36.485000	0.238779
	36.490000	0.167865
	36.495000	0.109845
	36.500000	0.187206
	36.505000	0.242003
	36.510000	0.164642
	36.515000	0.109845
	36.520000	0.187206
	36.525000	0.242003
	36.530000	0.174312
	36.535000	0.116292
	36.540000	0.180759
	36.545000	0.238779
	36.550000	0.164642
	36.555000	0.113068
	36.560000	0.180759
	36.565000	0.242003
	36.570000	0.164642
	36.575000	0.113068
	36.580000	0.187206
	36.585000	0.238779
	36.590000	0.167865
	36.595000	0.113068
	36.600000	0.190429
	36.605000	0.235556
	36.610000	0.171089
	36.615000	0.116292
	36.620000	0.174312
	36.625000	0.242003
	36.630000	0.171089
	36.635000	0.109845
	36.640000	0.183982
	36.645000	0.242003
	36.650000	0.171089
	36.655000	0.106622
	36.660000	0.187206
	36.665000	0.245226
	36.670000	0.164642
	36.675000	0.113068
	36.680000	0.183982
	36.685000	0.238779
	36.690000	0.171089
	36.695000	0.113068
	36.700000	0.183982
	36.705000	0.242003
	36.710000	0.171089
	36.715000	0.113068
	36.720000	0.183982
	36.725000	0.238779
	36.730000	0.177536
	36.735000	0.106622
	36.740000	0.183982
	36.745000	0.238779
	36.750000	0.171089
	36.755000	0.119515
	36.760000	0.180759
	36.765000	0.245226
	36.770000	0.174312
	36.775000	0.119515
	36.780000	0.187206
	36.785000	0.245226
	36.790000	0.171089
	36.795000	0.116292
	36.800000	0.183982
	36.805000	0.245226
	36.810000	0.180759
	36.815000	0.113068
	36.820000	0.187206
	36.825000	0.248449
	36.830000	0.177536
	36.835000	0.122738
	36.840000	0.187206
	36.845000	0.245226
	36.850000	0.177536
	36.855000	0.122738
	36.860000	0.183982
	36.865000	0.242003
	36.870000	0.183982
	36.875000	0.119515
	36.880000	0.193652
	36.885000	0.245226
	36.890000	0.183982
	36.895000	0.119515
	36.900000	0.190429
	36.905000	0.254896
	36.910000	0.187206
	36.915000	0.132408
	36.920000	0.193652
	36.925000	0.254896
	36.930000	0.190429
	36.935000	0.129185
	36.940000	0.196876
	36.945000	0.261343
	36.950000	0.196876
	36.955000	0.135632
	36.960000	0.200099
	36.965000	0.261343
	36.970000	0.196876
	36.975000	0.138855
	36.980000	0.206546
	36.985000	0.261343
	36.990000	0.203322
	36.995000	0.145302
	37.000000	0.209769
	37.005000	0.271013
	37.010000	0.203322
	37.015000	0.145302
	37.020000	0.209769
	37.025000	0.277460
	37.030000	0.209769
	37.035000	0.154972
	37.040000	0.216216
	37.045000	0.274236
	37.050000	0.216216
	37.055000	0.154972
	37.060000	0.219439
	37.065000	0.277460
	37.070000	0.206546
	37.075000	0.154972
	37.080000	0.216216
	37.085000	0.277460
	37.090000	0.209769
	37.095000	0.154972
	37.100000	0.219439
	37.105000	0.280683
	37.110000	0.216216
	37.115000	0.148525
	37.120000	0.216216
	37.125000	0.277460
	37.130000	0.219439
	37.135000	0.151749
	37.140000	0.225886
	37.145000	0.280683
	37.150000	0.229109
	37.155000	0.161419
	37.160000	0.232333
	37.165000	0.293576
	37.170000	0.235556
	37.175000	0.180759
	37.180000	0.242003
	37.185000	0.306470
	37.190000	0.245226
	37.195000	0.193652
	37.200000	0.258119
	37.205000	0.319363
	37.210000	0.254896
	37.215000	0.193652
	37.220000	0.264566
	37.225000	0.325810
	37.230000	0.264566
	37.235000	0.200099
	37.240000	0.274236
	37.245000	0.335480
	37.250000	0.264566
	37.255000	0.209769
	37.260000	0.271013
	37.265000	0.332257
	37.270000	0.271013
	37.275000	0.209769
	37.280000	0.274236
	37.285000	0.329033
	37.290000	0.274236
	37.295000	0.209769
	37.300000	0.274236
	37.305000	0.332257
	37.310000	0.271013
	37.315000	0.209769
	37.320000	0.271013
	37.325000	0.332257
	37.330000	0.280683
	37.335000	0.209769
	37.340000	0.271013
	37.345000	0.335480
	37.350000	0.271013
	37.355000	0.206546
	37.360000	0.274236
	37.365000	0.335480
	37.370000	0.271013
	37.375000	0.209769
	37.380000	0.267790
	37.385000	0.335480
	37.390000	0.271013
	37.395000	0.216216
	37.400000	0.267790
	37.405000	0.335480
	37.410000	0.274236
	37.415000	0.212992
	37.420000	0.271013
	37.425000	0.335480
	37.430000	0.274236
	37.435000	0.206546
	37.440000	0.261343
	37.445000	0.332257
	37.450000	0.271013
	37.455000	0.212992
	37.460000	0.267790
	37.465000	0.329033
	37.470000	0.274236
	37.475000	0.203322
	37.480000	0.258119
	37.485000	0.316140
	37.490000	0.261343
	37.495000	0.193652
	37.500000	0.248449
	37.505000	0.306470
	37.510000	0.248449
	37.515000	0.183982
	37.520000	0.232333
	37.525000	0.293576
	37.530000	0.238779
	37.535000	0.161419
	37.540000	0.216216
	37.545000	0.283906
	37.550000	0.222663
	37.555000	0.148525
	37.560000	0.206546
	37.565000	0.271013
	37.570000	0.209769
	37.575000	0.138855
	37.580000	0.196876
	37.585000	0.254896
	37.590000	0.200099
	37.595000	0.135632
	37.600000	0.190429
	37.605000	0.254896
	37.610000	0.193652
	37.615000	0.125962
	37.620000	0.183982
	37.625000	0.245226
	37.630000	0.183982
	37.635000	0.122738
	37.640000	0.174312
	37.645000	0.238779
	37.650000	0.190429
	37.655000	0.119515
	37.660000	0.174312
	37.665000	0.242003
	37.670000	0.174312
	37.675000	0.113068
	37.680000	0.171089
	37.685000	0.238779
	37.690000	0.177536
	37.695000	0.113068
	37.700000	0.161419
	37.705000	0.232333
	37.710000	0.177536
	37.715000	0.096952
	37.720000	0.167865
	37.725000	0.225886
	37.730000	0.177536
	37.735000	0.103398
	37.740000	0.151749
	37.745000	0.229109
	37.750000	0.174312
	37.755000	0.103398
	37.760000	0.161419
	37.765000	0.222663
	37.770000	0.174312
	37.775000	0.103398
	37.780000	0.158195
	37.785000	0.225886
	37.790000	0.167865
	37.795000	0.100175
	37.800000	0.158195
	37.805000	0.225886
	37.810000	0.177536
	37.815000	0.100175
	37.820000	0.161419
	37.825000	0.225886
	37.830000	0.174312
	37.835000	0.103398
	37.840000	0.161419
	37.845000	0.229109
	37.850000	0.174312
	37.855000	0.106622
	37.860000	0.164642
	37.865000	0.229109
	37.870000	0.174312
	37.875000	0.103398
	37.880000	0.161419
	37.885000	0.229109
	37.890000	0.167865
	37.895000	0.100175
	37.900000	0.158195
	37.905000	0.225886
	37.910000	0.174312
	37.915000	0.106622
	37.920000	0.158195
	37.925000	0.232333
	37.930000	0.174312
	37.935000	0.103398
	37.940000	0.158195
	37.945000	0.225886
	37.950000	0.171089
	37.955000	0.100175
	37.960000	0.161419
	37.965000	0.232333
	37.970000	0.171089
	37.975000	0.106622
	37.980000	0.161419
	37.985000	0.229109
	37.990000	0.171089
	37.995000	0.096952
	38.000000	0.158195
	38.005000	0.225886
	38.010000	0.171089
	38.015000	0.103398
	38.020000	0.161419
	38.025000	0.229109
	38.030000	0.167865
	38.035000	0.103398
	38.040000	0.161419
	38.045000	0.229109
	38.050000	0.171089
	38.055000	0.106622
	38.060000	0.161419
	38.065000	0.232333
	38.070000	0.177536
	38.075000	0.106622
	38.080000	0.158195
	38.085000	0.225886
	38.090000	0.174312
	38.095000	0.103398
	38.100000	0.158195
	38.105000	0.229109
	38.110000	0.177536
	38.115000	0.103398
	38.120000	0.161419
	38.125000	0.229109
	38.130000	0.177536
	38.135000	0.103398
	38.140000	0.158195
	38.145000	0.235556
	38.150000	0.180759
	38.155000	0.113068
	38.160000	0.158195
	38.165000	0.235556
	38.170000	0.174312
	38.175000	0.106622
	38.180000	0.161419
	38.185000	0.238779
	38.190000	0.177536
	38.195000	0.109845
	38.200000	0.158195
	38.205000	0.232333
	38.210000	0.180759
	38.215000	0.109845
	38.220000	0.161419
	38.225000	0.232333
	38.230000	0.177536
	38.235000	0.106622
	38.240000	0.161419
	38.245000	0.235556
	38.250000	0.180759
	38.255000	0.103398
	38.260000	0.158195
	38.265000	0.235556
	38.270000	0.180759
	38.275000	0.100175
	38.280000	0.161419
	38.285000	0.232333
	38.290000	0.180759
	38.295000	0.113068
	38.300000	0.164642
	38.305000	0.235556
	38.310000	0.180759
	38.315000	0.103398
	38.320000	0.164642
	38.325000	0.235556
	38.330000	0.180759
	38.335000	0.106622
	38.340000	0.158195
	38.345000	0.229109
	38.350000	0.180759
	38.355000	0.109845
	38.360000	0.161419
	38.365000	0.232333
	38.370000	0.183982
	38.375000	0.113068
	38.380000	0.158195
	38.385000	0.235556
	38.390000	0.187206
	38.395000	0.109845
	38.400000	0.164642
	38.405000	0.235556
	38.410000	0.190429
	38.415000	0.109845
	38.420000	0.154972
	38.425000	0.235556
	38.430000	0.180759
	38.435000	0.113068
	38.440000	0.154972
	38.445000	0.238779
	38.450000	0.183982
	38.455000	0.109845
	38.460000	0.154972
	38.465000	0.232333
	38.470000	0.187206
	38.475000	0.109845
	38.480000	0.158195
	38.485000	0.238779
	38.490000	0.187206
	38.495000	0.109845
	38.500000	0.158195
	38.505000	0.232333
	38.510000	0.187206
	38.515000	0.109845
	38.520000	0.158195
	38.525000	0.232333
	38.530000	0.190429
	38.535000	0.113068
	38.540000	0.158195
	38.545000	0.235556
	38.550000	0.187206
	38.555000	0.113068
	38.560000	0.161419
	38.565000	0.235556
	38.570000	0.190429
	38.575000	0.106622
	38.580000	0.161419
	38.585000	0.235556
	38.590000	0.193652
	38.595000	0.113068
	38.600000	0.161419
	38.605000	0.245226
	38.610000	0.187206
	38.615000	0.106622
	38.620000	0.154972
	38.625000	0.232333
	38.630000	0.190429
	38.635000	0.109845
	38.640000	0.158195
	38.645000	0.242003
	38.650000	0.193652
	38.655000	0.109845
	38.660000	0.158195
	38.665000	0.235556
	38.670000	0.190429
	38.675000	0.116292
	38.680000	0.158195
	38.685000	0.238779
	38.690000	0.190429
	38.695000	0.116292
	38.700000	0.158195
	38.705000	0.235556
	38.710000	0.187206
	38.715000	0.116292
	38.720000	0.158195
	38.725000	0.242003
	38.730000	0.190429
	38.735000	0.113068
	38.740000	0.161419
	38.745000	0.242003
	38.750000	0.193652
	38.755000	0.116292
	38.760000	0.161419
	38.765000	0.238779
	38.770000	0.196876
	38.775000	0.109845
	38.780000	0.161419
	38.785000	0.235556
	38.790000	0.196876
	38.795000	0.109845
	38.800000	0.151749
	38.805000	0.238779
	38.810000	0.200099
	38.815000	0.106622
	38.820000	0.154972
	38.825000	0.235556
	38.830000	0.193652
	38.835000	0.116292
	38.840000	0.161419
	38.845000	0.235556
	38.850000	0.193652
	38.855000	0.109845
	38.860000	0.158195
	38.865000	0.238779
	38.870000	0.193652
	38.875000	0.116292
	38.880000	0.154972
	38.885000	0.235556
	38.890000	0.193652
	38.895000	0.116292
	38.900000	0.161419
	38.905000	0.232333
	38.910000	0.196876
	38.915000	0.119515
	38.920000	0.164642
	38.925000	0.238779
	38.930000	0.196876
	38.935000	0.116292
	38.940000	0.158195
	38.945000	0.238779
	38.950000	0.190429
	38.955000	0.116292
	38.960000	0.154972
	38.965000	0.242003
	38.970000	0.200099
	38.975000	0.116292
	38.980000	0.161419
	38.985000	0.235556
	38.990000	0.193652
	38.995000	0.113068
	39.000000	0.158195
	39.005000	0.238779
	39.010000	0.193652
	39.015000	0.113068
	39.020000	0.151749
	39.025000	0.235556
	39.030000	0.196876
	39.035000	0.119515
	39.040000	0.158195
	39.045000	0.232333
	39.050000	0.196876
	39.055000	0.113068
	39.060000	0.158195
	39.065000	0.232333
	39.070000	0.193652
	39.075000	0.116292
	39.080000	0.151749
	39.085000	0.235556
	39.090000	0.200099
	39.095000	0.122738
	39.100000	0.158195
	39.105000	0.242003
	39.110000	0.196876
	39.115000	0.113068
	39.120000	0.158195
	39.125000	0.242003
	39.130000	0.200099
	39.135000	0.116292
	39.140000	0.161419
	39.145000	0.235556
	39.150000	0.196876
	39.155000	0.116292
	39.160000	0.154972
	39.165000	0.235556
	39.170000	0.196876
	39.175000	0.109845
	39.180000	0.158195
	39.185000	0.235556
	39.190000	0.200099
	39.195000	0.113068
	39.200000	0.154972
	39.205000	0.242003
	39.210000	0.200099
	39.215000	0.116292
	39.220000	0.158195
	39.225000	0.238779
	39.230000	0.203322
	39.235000	0.116292
	39.240000	0.154972
	39.245000	0.238779
	39.250000	0.200099
	39.255000	0.116292
	39.260000	0.158195
	39.265000	0.235556
	39.270000	0.206546
	39.275000	0.113068
	39.280000	0.158195
	39.285000	0.238779
	39.290000	0.200099
	39.295000	0.119515
	39.300000	0.158195
	39.305000	0.242003
	39.310000	0.203322
	39.315000	0.122738
	39.320000	0.158195
	39.325000	0.242003
	39.330000	0.206546
	39.335000	0.122738
	39.340000	0.161419
	39.345000	0.242003
	39.350000	0.203322
	39.355000	0.119515
	39.360000	0.158195
	39.365000	0.242003
	39.370000	0.203322
	39.375000	0.119515
	39.380000	0.154972
	39.385000	0.245226
	39.390000	0.200099
	39.395000	0.122738
	39.400000	0.154972
	39.405000	0.238779
	39.410000	0.203322
	39.415000	0.116292
	39.420000	0.151749
	39.425000	0.242003
	39.430000	0.206546
	39.435000	0.116292
	39.440000	0.151749
	39.445000	0.238779
	39.450000	0.203322
	39.455000	0.119515
	39.460000	0.154972
	39.465000	0.238779
	39.470000	0.200099
	39.475000	0.116292
	39.480000	0.151749
	39.485000	0.238779
	39.490000	0.200099
	39.495000	0.122738
	39.500000	0.154972
	39.505000	0.238779
	39.510000	0.206546
	39.515000	0.116292
	39.520000	0.154972
	39.525000	0.248449
	39.530000	0.200099
	39.535000	0.122738
	39.540000	0.158195
	39.545000	0.232333
	39.550000	0.203322
	39.555000	0.113068
	39.560000	0.148525
	39.565000	0.242003
	39.570000	0.196876
	39.575000	0.116292
	39.580000	0.154972
	39.585000	0.238779
	39.590000	0.200099
	39.595000	0.119515
	39.600000	0.158195
	39.605000	0.235556
	39.610000	0.203322
	39.615000	0.125962
	39.620000	0.151749
	39.625000	0.235556
	39.630000	0.203322
	39.635000	0.119515
	39.640000	0.151749
	39.645000	0.235556
	39.650000	0.206546
	39.655000	0.119515
	39.660000	0.151749
	39.665000	0.235556
	39.670000	0.206546
	39.675000	0.116292
	39.680000	0.151749
	39.685000	0.235556
	39.690000	0.209769
	39.695000	0.119515
	39.700000	0.154972
	39.705000	0.238779
	39.710000	0.209769
	39.715000	0.122738
	39.720000	0.154972
	39.725000	0.248449
	39.730000	0.216216
	39.735000	0.132408
	39.740000	0.158195
	39.745000	0.248449
	39.750000	0.212992
	39.755000	0.125962
	39.760000	0.164642
	39.765000	0.251673
	39.770000	0.225886
	39.775000	0.135632
	39.780000	0.167865
	39.785000	0.254896
	39.790000	0.229109
	39.795000	0.138855
	39.800000	0.167865
	39.805000	0.254896
	39.810000	0.225886
	39.815000	0.142079
	39.820000	0.171089
	39.825000	0.264566
	39.830000	0.232333
	39.835000	0.154972
	39.840000	0.177536
	39.845000	0.261343
	39.850000	0.232333
	39.855000	0.151749
	39.860000	0.187206
	39.865000	0.271013
	39.870000	0.245226
	39.875000	0.154972
	39.880000	0.187206
	39.885000	0.274236
	39.890000	0.238779
	39.895000	0.164642
	39.900000	0.193652
	39.905000	0.271013
	39.910000	0.251673
	39.915000	0.164642
	39.920000	0.193652
	39.925000	0.283906
	39.930000	0.251673
	39.935000	0.174312
	39.940000	0.203322
	39.945000	0.283906
	39.950000	0.258119
	39.955000	0.177536
	39.960000	0.209769
	39.965000	0.296800
	39.970000	0.267790
	39.975000	0.190429
	39.980000	0.212992
	39.985000	0.300023
	39.990000	0.274236
	39.995000	0.200099
	40.000000	0.222663
	40.005000	0.306470
	40.010000	0.283906
	40.015000	0.200099
	40.020000	0.232333
	40.025000	0.309693
	40.030000	0.290353
	40.035000	0.209769
	40.040000	0.238779
	40.045000	0.319363
	40.050000	0.300023
	40.055000	0.212992
	40.060000	0.242003
	40.065000	0.322587
	40.070000	0.300023
	40.075000	0.209769
	40.080000	0.242003
	40.085000	0.325810
	40.090000	0.296800
	40.095000	0.216216
	40.100000	0.238779
	40.105000	0.319363
	40.110000	0.293576
	40.115000	0.212992
	40.120000	0.225886
	40.125000	0.316140
	40.130000	0.290353
	40.135000	0.209769
	40.140000	0.232333
	40.145000	0.319363
	40.150000	0.287130
	40.155000	0.203322
	40.160000	0.232333
	40.165000	0.316140
	40.170000	0.283906
	40.175000	0.200099
	40.180000	0.225886
	40.185000	0.306470
	40.190000	0.287130
	40.195000	0.193652
	40.200000	0.219439
	40.205000	0.309693
	40.210000	0.277460
	40.215000	0.200099
	40.220000	0.222663
	40.225000	0.312917
	40.230000	0.280683
	40.235000	0.196876
	40.240000	0.209769
	40.245000	0.296800
	40.250000	0.271013
	40.255000	0.183982
	40.260000	0.209769
	40.265000	0.287130
	40.270000	0.264566
	40.275000	0.174312
	40.280000	0.200099
	40.285000	0.277460
	40.290000	0.251673
	40.295000	0.164642
	40.300000	0.174312
	40.305000	0.264566
	40.310000	0.235556
	40.315000	0.148525
	40.320000	0.171089
	40.325000	0.245226
	40.330000	0.229109
	40.335000	0.138855
	40.340000	0.158195
	40.345000	0.245226
	40.350000	0.222663
	40.355000	0.129185
	40.360000	0.158195
	40.365000	0.238779
	40.370000	0.219439
	40.375000	0.135632
	40.380000	0.158195
	40.385000	0.238779
	40.390000	0.216216
	40.395000	0.129185
	40.400000	0.148525
	40.405000	0.229109
	40.410000	0.206546
	40.415000	0.119515
	40.420000	0.138855
	40.425000	0.225886
	40.430000	0.206546
	40.435000	0.113068
	40.440000	0.138855
	40.445000	0.212992
	40.450000	0.196876
	40.455000	0.109845
	40.460000	0.129185
	40.465000	0.212992
	40.470000	0.193652
	40.475000	0.113068
	40.480000	0.125962
	40.485000	0.216216
	40.490000	0.190429
	40.495000	0.109845
	40.500000	0.129185
	40.505000	0.216216
	40.510000	0.200099
	40.515000	0.109845
	40.520000	0.129185
	40.525000	0.219439
	40.530000	0.196876
	40.535000	0.109845
	40.540000	0.132408
	40.545000	0.212992
	40.550000	0.196876
	40.555000	0.103398
	40.560000	0.129185
	40.565000	0.219439
	40.570000	0.203322
	40.575000	0.113068
	40.580000	0.129185
	40.585000	0.212992
	40.590000	0.203322
	40.595000	0.103398
	40.600000	0.125962
	40.605000	0.216216
	40.610000	0.203322
	40.615000	0.109845
	40.620000	0.132408
	40.625000	0.222663
	40.630000	0.200099
	40.635000	0.109845
	40.640000	0.125962
	40.645000	0.219439
	40.650000	0.200099
	40.655000	0.106622
	40.660000	0.132408
	40.665000	0.225886
	40.670000	0.203322
	40.675000	0.109845
	40.680000	0.129185
	40.685000	0.216216
	40.690000	0.206546
	40.695000	0.113068
	40.700000	0.129185
	40.705000	0.216216
	40.710000	0.193652
	40.715000	0.116292
	40.720000	0.132408
	40.725000	0.222663
	40.730000	0.206546
	40.735000	0.109845
	40.740000	0.135632
	40.745000	0.219439
	40.750000	0.200099
	40.755000	0.116292
	40.760000	0.122738
	40.765000	0.216216
	40.770000	0.200099
	40.775000	0.113068
	40.780000	0.132408
	40.785000	0.216216
	40.790000	0.206546
	40.795000	0.109845
	40.800000	0.129185
	40.805000	0.219439
	40.810000	0.200099
	40.815000	0.109845
	40.820000	0.125962
	40.825000	0.219439
	40.830000	0.196876
	40.835000	0.113068
	40.840000	0.129185
	40.845000	0.219439
	40.850000	0.206546
	40.855000	0.113068
	40.860000	0.129185
	40.865000	0.219439
	40.870000	0.206546
	40.875000	0.113068
	40.880000	0.125962
	40.885000	0.219439
	40.890000	0.206546
	40.895000	0.119515
	40.900000	0.122738
	40.905000	0.219439
	40.910000	0.203322
	40.915000	0.116292
	40.920000	0.129185
	40.925000	0.219439
	40.930000	0.212992
	40.935000	0.113068
	40.940000	0.125962
	40.945000	0.219439
	40.950000	0.209769
	40.955000	0.116292
	40.960000	0.125962
	40.965000	0.219439
	40.970000	0.206546
	40.975000	0.119515
	40.980000	0.129185
	40.985000	0.219439
	40.990000	0.200099
	40.995000	0.119515
	41.000000	0.125962
	41.005000	0.219439
	41.010000	0.216216
	41.015000	0.122738
	41.020000	0.125962
	41.025000	0.216216
	41.030000	0.206546
	41.035000	0.113068
	41.040000	0.129185
	41.045000	0.216216
	41.050000	0.200099
	41.055000	0.116292
	41.060000	0.135632
	41.065000	0.216216
	41.070000	0.206546
	41.075000	0.119515
	41.080000	0.132408
	41.085000	0.219439
	41.090000	0.209769
	41.095000	0.119515
	41.100000	0.129185
	41.105000	0.219439
	41.110000	0.209769
	41.115000	0.119515
	41.120000	0.125962
	41.125000	0.219439
	41.130000	0.216216
	41.135000	0.119515
	41.140000	0.125962
	41.145000	0.222663
	41.150000	0.212992
	41.155000	0.116292
	41.160000	0.135632
	41.165000	0.219439
	41.170000	0.206546
	41.175000	0.119515
	41.180000	0.135632
	41.185000	0.222663
	41.190000	0.216216
	41.195000	0.119515
	41.200000	0.129185
	41.205000	0.225886
	41.210000	0.209769
	41.215000	0.116292
	41.220000	0.122738
	41.225000	0.222663
	41.230000	0.212992
	41.235000	0.122738
	41.240000	0.132408
	41.245000	0.216216
	41.250000	0.212992
	41.255000	0.113068
	41.260000	0.129185
	41.265000	0.219439
	41.270000	0.216216
	41.275000	0.122738
	41.280000	0.132408
	41.285000	0.222663
	41.290000	0.216216
	41.295000	0.125962
	41.300000	0.129185
	41.305000	0.219439
	41.310000	0.216216
	41.315000	0.125962
	41.320000	0.132408
	41.325000	0.219439
	41.330000	0.216216
	41.335000	0.125962
	41.340000	0.129185
	41.345000	0.222663
	41.350000	0.222663
	41.355000	0.125962
	41.360000	0.132408
	41.365000	0.219439
	41.370000	0.219439
	41.375000	0.132408
	41.380000	0.132408
	41.385000	0.222663
	41.390000	0.219439
	41.395000	0.129185
	41.400000	0.135632
	41.405000	0.225886
	41.410000	0.222663
	41.415000	0.135632
	41.420000	0.138855
	41.425000	0.222663
	41.430000	0.216216
	41.435000	0.125962
	41.440000	0.132408
	41.445000	0.229109
	41.450000	0.222663
	41.455000	0.129185
	41.460000	0.142079
	41.465000	0.222663
	41.470000	0.225886
	41.475000	0.129185
	41.480000	0.129185
	41.485000	0.222663
	41.490000	0.225886
	41.495000	0.135632
	41.500000	0.135632
	41.505000	0.225886
	41.510000	0.222663
	41.515000	0.132408
	41.520000	0.132408
	41.525000	0.232333
	41.530000	0.222663
	41.535000	0.132408
	41.540000	0.129185
	41.545000	0.222663
	41.550000	0.225886
	41.555000	0.129185
	41.560000	0.135632
	41.565000	0.229109
	41.570000	0.232333
	41.575000	0.129185
	41.580000	0.142079
	41.585000	0.225886
	41.590000	0.222663
	41.595000	0.138855
	41.600000	0.135632
	41.605000	0.222663
	41.610000	0.219439
	41.615000	0.132408
	41.620000	0.135632
	41.625000	0.225886
	41.630000	0.225886
	41.635000	0.132408
	41.640000	0.135632
	41.645000	0.225886
	41.650000	0.222663
	41.655000	0.132408
	41.660000	0.135632
	41.665000	0.225886
	41.670000	0.222663
	41.675000	0.132408
	41.680000	0.129185
	41.685000	0.225886
	41.690000	0.225886
	41.695000	0.129185
	41.700000	0.129185
	41.705000	0.225886
	41.710000	0.219439
	41.715000	0.132408
	41.720000	0.142079
	41.725000	0.225886
	41.730000	0.222663
	41.735000	0.129185
	41.740000	0.132408
	41.745000	0.222663
	41.750000	0.222663
	41.755000	0.132408
	41.760000	0.135632
	41.765000	0.222663
	41.770000	0.229109
	41.775000	0.129185
	41.780000	0.132408
	41.785000	0.225886
	41.790000	0.232333
	41.795000	0.132408
	41.800000	0.132408
	41.805000	0.219439
	41.810000	0.229109
	41.815000	0.129185
	41.820000	0.132408
	41.825000	0.225886
	41.830000	0.225886
	41.835000	0.129185
	41.840000	0.129185
	41.845000	0.219439
	41.850000	0.225886
	41.855000	0.129185
	41.860000	0.132408
	41.865000	0.222663
	41.870000	0.229109
	41.875000	0.129185
	41.880000	0.132408
	41.885000	0.219439
	41.890000	0.229109
	41.895000	0.135632
	41.900000	0.132408
	41.905000	0.222663
	41.910000	0.222663
	41.915000	0.135632
	41.920000	0.132408
	41.925000	0.222663
	41.930000	0.229109
	41.935000	0.138855
	41.940000	0.132408
	41.945000	0.219439
